LabVIEW Measurement	
Writer_Version	2
Reader_Version	2
Separator	Tab
Decimal_Separator	.
Multi_Headings	No
X_Columns	One
Time_Pref	Absolute
Operator	machine07
Date	2018/11/19
Time	09:07:52.2131250998842608932
***End_of_Header***	
	
Channels	2		
Samples	100	100	
Date	2018/11/19	2018/11/19	
Time	11:59:38.2131250998844754299	11:59:38.2131400995330315431	
Y_Unit_Label	Lbf	Volts	
X_Dimension	Time	Time	
X0	0.0000000000000000E+0	0.0000000000000000E+0	
Delta_X	0.010000	0.010000	
***End_of_Header***			
X_Value	Load-lbf	Strain-usn	Comment
0.000000	19.134521	-33.764648
0.010000	23.834229	-36.816406
0.020000	17.456055	-36.816406
0.030000	20.812988	-0.195312
0.040000	17.120361	-21.557617
0.050000	20.477295	-3.247070
0.060000	23.498535	-3.247070
0.070000	21.148682	-15.454102
0.080000	20.477295	2.856445
0.090000	23.162842	2.856445
0.100000	24.505615	-9.350586
0.110000	20.812988	-12.402344
0.120000	24.505615	-0.195312
0.130000	26.519775	21.166992
0.140000	22.827148	8.959961
0.150000	20.477295	-39.868164
0.160000	22.491455	-12.402344
0.170000	23.834229	-6.298828
0.180000	19.805908	24.218750
0.190000	23.162842	-18.505859
0.200000	19.805908	-27.661133
0.210000	21.484375	-91.748047
0.220000	24.841309	48.632812
0.230000	24.169922	-21.557617
0.240000	21.148682	-15.454102
0.250000	23.834229	-6.298828
0.260000	28.198242	2.856445
0.270000	26.184082	-18.505859
0.280000	19.470215	-39.868164
0.290000	23.498535	21.166992
0.300000	21.484375	-27.661133
0.310000	22.827148	-0.195312
0.320000	21.484375	-107.006836
0.330000	22.827148	-21.557617
0.340000	21.148682	-15.454102
0.350000	22.155762	-12.402344
0.360000	15.441895	-21.557617
0.370000	20.141602	-3.247070
0.380000	21.820068	-27.661133
0.390000	23.162842	5.908203
0.400000	23.834229	-12.402344
0.410000	23.834229	-12.402344
0.420000	23.498535	-24.609375
0.430000	20.477295	-36.816406
0.440000	23.162842	-27.661133
0.450000	19.805908	-24.609375
0.460000	16.784668	-15.454102
0.470000	20.141602	-27.661133
0.480000	19.805908	-61.230469
0.490000	23.498535	-12.402344
0.500000	19.134521	-24.609375
0.510000	24.505615	-21.557617
0.520000	14.434814	-15.454102
0.530000	23.162842	-0.195312
0.540000	26.184082	-3.247070
0.550000	22.491455	-21.557617
0.560000	27.862549	-9.350586
0.570000	22.827148	-27.661133
0.580000	21.484375	5.908203
0.590000	24.169922	-97.851562
0.600000	20.141602	-18.505859
0.610000	19.470215	-18.505859
0.620000	24.169922	-18.505859
0.630000	21.820068	8.959961
0.640000	21.820068	-18.505859
0.650000	18.798828	-18.505859
0.660000	22.491455	-24.609375
0.670000	23.162842	-9.350586
0.680000	19.470215	-21.557617
0.690000	17.120361	-9.350586
0.700000	21.148682	18.115234
0.710000	22.155762	-3.247070
0.720000	22.491455	-3.247070
0.730000	21.148682	-18.505859
0.740000	24.505615	15.063477
0.750000	23.162842	-36.816406
0.760000	24.169922	-0.195312
0.770000	22.827148	21.166992
0.780000	21.148682	2.856445
0.790000	20.477295	-24.609375
0.800000	25.512695	-6.298828
0.810000	26.184082	-12.402344
0.820000	24.505615	-3.247070
0.830000	22.491455	-9.350586
0.840000	22.827148	-30.712891
0.850000	21.484375	-9.350586
0.860000	22.491455	-6.298828
0.870000	21.820068	-88.696289
0.880000	18.127441	-21.557617
0.890000	23.162842	-6.298828
0.900000	21.148682	-21.557617
0.910000	25.512695	-21.557617
0.920000	21.148682	-24.609375
0.930000	21.820068	5.908203
0.940000	23.162842	-12.402344
0.950000	21.484375	-9.350586
0.960000	23.498535	-3.247070
0.970000	16.113281	-33.764648
0.980000	20.477295	-21.557617
0.990000	24.169922	-9.350586
1.000000	23.498535	2.856445
1.010000	27.526855	39.477539
1.020000	25.177002	-3.247070
1.030000	21.484375	-6.298828
1.040000	23.162842	-21.557617
1.050000	14.099121	-9.350586
1.060000	22.827148	-15.454102
1.070000	22.827148	-21.557617
1.080000	22.491455	-3.247070
1.090000	20.812988	-24.609375
1.100000	23.162842	-15.454102
1.110000	22.155762	-3.247070
1.120000	23.834229	-58.178711
1.130000	21.484375	-9.350586
1.140000	23.834229	-9.350586
1.150000	20.477295	-3.247070
1.160000	18.463135	5.908203
1.170000	23.498535	18.115234
1.180000	17.120361	-21.557617
1.190000	22.827148	-21.557617
1.200000	22.827148	-70.385742
1.210000	21.484375	-12.402344
1.220000	21.148682	-9.350586
1.230000	21.484375	-18.505859
1.240000	25.512695	12.011719
1.250000	25.848389	-15.454102
1.260000	17.456055	-15.454102
1.270000	22.827148	-18.505859
1.280000	24.169922	-21.557617
1.290000	24.169922	-9.350586
1.300000	19.470215	-15.454102
1.310000	23.162842	-15.454102
1.320000	24.505615	-64.282227
1.330000	22.827148	-9.350586
1.340000	23.498535	12.011719
1.350000	24.505615	-9.350586
1.360000	23.834229	-9.350586
1.370000	26.184082	-9.350586
1.380000	24.841309	-6.298828
1.390000	29.205322	-3.247070
1.400000	30.212402	-9.350586
1.410000	30.212402	-39.868164
1.420000	36.590576	-18.505859
1.430000	37.261963	-9.350586
1.440000	37.933350	-3.247070
1.450000	44.647217	-33.764648
1.460000	44.311523	-15.454102
1.470000	48.339844	-27.661133
1.480000	49.346924	-33.764648
1.490000	52.032471	-30.712891
1.500000	53.710937	-27.661133
1.510000	58.410645	-110.058594
1.520000	59.417725	-58.178711
1.530000	62.774658	-39.868164
1.540000	65.795898	-45.971680
1.550000	68.145752	-55.126953
1.560000	72.174072	-21.557617
1.570000	71.166992	-52.075195
1.580000	71.838379	-58.178711
1.590000	78.216553	-52.075195
1.600000	78.887939	-36.816406
1.610000	84.594727	-61.230469
1.620000	88.623047	-61.230469
1.630000	90.637207	-76.489258
1.640000	97.686768	-52.075195
1.650000	95.336914	-67.333984
1.660000	95.336914	-103.955078
1.670000	97.351074	-70.385742
1.680000	100.372314	-64.282227
1.690000	111.785889	-70.385742
1.700000	109.436035	-67.333984
1.710000	111.114502	-82.592773
1.720000	111.450195	-94.799805
1.730000	118.164062	-49.023437
1.740000	118.499756	-152.783203
1.750000	120.178223	-79.541016
1.760000	123.535156	-107.006836
1.770000	127.227783	-79.541016
1.780000	124.542236	-76.489258
1.790000	136.627197	-91.748047
1.800000	133.941650	-64.282227
1.810000	135.284424	-70.385742
1.820000	137.969971	-58.178711
1.830000	138.305664	-73.437500
1.840000	144.683838	-79.541016
1.850000	143.341064	-55.126953
1.860000	146.697998	-67.333984
1.870000	150.054932	-61.230469
1.880000	152.404785	-79.541016
1.890000	156.097412	-55.126953
1.900000	156.768799	-76.489258
1.910000	159.454346	-58.178711
1.920000	165.496826	-64.282227
1.930000	165.496826	-39.868164
1.940000	167.846680	-36.816406
1.950000	172.210693	-58.178711
1.960000	171.203613	-125.317383
1.970000	175.231934	-24.609375
1.980000	177.581787	-39.868164
1.990000	182.952881	-45.971680
2.000000	184.967041	-39.868164
2.010000	190.673828	-33.764648
2.020000	187.988281	-21.557617
2.030000	189.666748	-18.505859
2.040000	194.366455	-55.126953
2.050000	194.366455	-21.557617
2.060000	198.059082	-15.454102
2.070000	199.737549	-12.402344
2.080000	202.087402	-12.402344
2.090000	205.108643	-21.557617
2.100000	205.780029	2.856445
2.110000	208.801270	-9.350586
2.120000	217.193604	21.166992
2.130000	210.815430	-21.557617
2.140000	220.214844	5.908203
2.150000	215.850830	-3.247070
2.160000	230.285645	27.270508
2.170000	228.942871	-0.195312
2.180000	238.677979	33.374023
2.190000	241.699219	42.529297
2.200000	243.041992	33.374023
2.210000	246.063232	45.581055
2.220000	247.070312	85.253906
2.230000	241.027832	63.891602
2.240000	244.720459	39.477539
2.250000	243.377686	48.632812
2.260000	248.077393	51.684570
2.270000	250.762939	42.529297
2.280000	251.770020	57.788086
2.290000	259.155273	63.891602
2.300000	257.812500	88.305664
2.310000	258.819580	-15.454102
2.320000	262.847900	82.202148
2.330000	262.176514	45.581055
2.340000	268.890381	73.046875
2.350000	271.575928	112.719727
2.360000	275.268555	103.564453
2.370000	272.583008	69.995117
2.380000	278.961182	85.253906
2.390000	283.660889	91.357422
2.400000	283.996582	97.460937
2.410000	286.682129	94.409180
2.420000	292.053223	131.030273
2.430000	287.017822	88.305664
2.440000	297.088623	109.667969
2.450000	298.431396	112.719727
2.460000	301.452637	82.202148
2.470000	298.431396	103.564453
2.480000	300.109863	115.771484
2.490000	306.488037	140.185547
2.500000	308.502197	112.719727
2.510000	315.216064	140.185547
2.520000	311.187744	143.237305
2.530000	317.230225	127.978516
2.540000	319.580078	121.875000
2.550000	321.594238	167.651367
2.560000	324.615479	124.926758
2.570000	331.329346	161.547852
2.580000	334.686279	143.237305
2.590000	329.315186	146.289062
2.600000	331.329346	161.547852
2.610000	336.029053	161.547852
2.620000	336.364746	170.703125
2.630000	341.064453	176.806641
2.640000	346.435547	179.858398
2.650000	344.421387	185.961914
2.660000	356.842041	192.065430
2.670000	361.206055	204.272461
2.680000	365.234375	195.117187
2.690000	368.591309	207.324219
2.700000	359.527588	192.065430
2.710000	364.227295	189.013672
2.720000	363.891602	195.117187
2.730000	368.591309	253.100586
2.740000	365.570068	182.910156
2.750000	368.255615	222.583008
2.760000	371.276855	222.583008
2.770000	375.976562	246.997070
2.780000	375.640869	237.841797
2.790000	377.319336	228.686523
2.800000	380.676270	134.082031
2.810000	382.690430	195.117187
2.820000	388.732910	246.997070
2.830000	390.075684	246.997070
2.840000	401.153564	210.375977
2.850000	405.181885	243.945312
2.860000	402.496338	259.204102
2.870000	398.132324	256.152344
2.880000	399.810791	176.806641
2.890000	399.810791	256.152344
2.900000	407.531738	271.411133
2.910000	408.538818	243.945312
2.920000	414.916992	262.255859
2.930000	414.245605	274.462891
2.940000	417.938232	268.359375
2.950000	415.252686	265.307617
2.960000	419.616699	234.790039
2.970000	426.330566	292.773437
2.980000	425.659180	304.980469
2.990000	434.051514	301.928711
3.000000	428.680420	286.669922
3.010000	438.079834	268.359375
3.020000	441.772461	286.669922
3.030000	442.108154	298.876953
3.040000	452.850342	320.239258
3.050000	443.450928	298.876953
3.060000	446.136475	298.876953
3.070000	449.829102	314.135742
3.080000	450.164795	314.135742
3.090000	456.207275	372.119141
3.100000	455.871582	317.187500
3.110000	459.899902	350.756836
3.120000	465.270996	323.291016
3.130000	462.921143	308.032227
3.140000	469.299316	323.291016
3.150000	472.320557	320.239258
3.160000	471.984863	301.928711
3.170000	480.041504	417.895508
3.180000	474.670410	344.653320
3.190000	479.370117	372.119141
3.200000	482.055664	353.808594
3.210000	486.419678	356.860352
3.220000	485.748291	359.912109
3.230000	489.440918	338.549805
3.240000	487.426758	362.963867
3.250000	496.154785	372.119141
3.260000	498.840332	359.912109
3.270000	502.868652	384.326172
3.280000	494.812012	366.015625
3.290000	503.875732	381.274414
3.300000	504.211426	387.377930
3.310000	514.953613	396.533203
3.320000	530.731201	445.361328
3.330000	528.045654	427.050781
3.340000	532.073975	396.533203
3.350000	530.395508	405.688477
3.360000	532.745361	399.584961
3.370000	535.766602	366.015625
3.380000	539.123535	411.791992
3.390000	541.137695	439.257812
3.400000	538.116455	430.102539
3.410000	540.130615	369.067383
3.420000	541.137695	417.895508
3.430000	548.187256	417.895508
3.440000	553.558350	423.999023
3.450000	550.872803	439.257812
3.460000	553.558350	427.050781
3.470000	558.258057	439.257812
3.480000	554.565430	448.413086
3.490000	563.293457	466.723633
3.500000	559.600830	445.361328
3.510000	562.622070	448.413086
3.520000	569.335937	454.516602
3.530000	571.014404	445.361328
3.540000	564.636230	463.671875
3.550000	575.378418	472.827148
3.560000	571.014404	448.413086
3.570000	581.420898	481.982422
3.580000	581.085205	466.723633
3.590000	583.435059	472.827148
3.600000	589.477539	475.878906
3.610000	593.505859	481.982422
3.620000	595.520020	497.241211
3.630000	589.141846	451.464844
3.640000	594.512939	494.189453
3.650000	599.548340	478.930664
3.660000	602.569580	500.292969
3.670000	605.590820	463.671875
3.680000	604.583740	509.448242
3.690000	607.604980	506.396484
3.700000	608.276367	506.396484
3.710000	610.961914	494.189453
3.720000	612.304687	527.758789
3.730000	614.990234	521.655273
3.740000	621.704102	567.431641
3.750000	630.096436	518.603516
3.760000	624.725342	543.017578
3.770000	624.389648	530.810547
3.780000	630.096436	512.500000
3.790000	632.110596	604.052734
3.800000	640.502930	536.914062
3.810000	638.824463	521.655273
3.820000	642.181396	549.121094
3.830000	640.502930	530.810547
3.840000	642.852783	543.017578
3.850000	651.916504	524.707031
3.860000	649.230957	564.379883
3.870000	652.252197	546.069336
3.880000	655.944824	521.655273
3.890000	656.616211	567.431641
3.900000	659.637451	591.845703
3.910000	660.980225	564.379883
3.920000	664.337158	591.845703
3.930000	668.029785	570.483398
3.940000	672.729492	564.379883
3.950000	675.415039	588.793945
3.960000	673.736572	555.224609
3.970000	678.436279	594.897461
3.980000	677.429199	601.000977
3.990000	683.471680	597.949219
4.000000	685.821533	585.742187
4.010000	686.492920	607.104492
4.020000	689.849854	607.104492
4.030000	692.199707	616.259766
4.040000	694.549561	610.156250
4.050000	697.235107	628.466797
4.060000	704.284668	622.363281
4.070000	705.627441	637.622070
4.080000	702.606201	625.415039
4.090000	707.641602	631.518555
4.100000	710.327148	631.518555
4.110000	709.655762	631.518555
4.120000	709.991455	622.363281
4.130000	713.012695	640.673828
4.140000	715.026855	643.725586
4.150000	720.397949	668.139648
4.160000	724.426270	662.036133
4.170000	723.754883	613.208008
4.180000	728.118896	649.829102
4.190000	729.461670	662.036133
4.200000	730.468750	643.725586
4.210000	736.175537	680.346680
4.220000	741.882324	655.932617
4.230000	741.546631	662.036133
4.240000	746.582031	707.812500
4.250000	748.260498	668.139648
4.260000	749.267578	668.139648
4.270000	754.302979	704.760742
4.280000	752.960205	652.880859
4.290000	754.638672	692.553711
4.300000	759.338379	701.708984
4.310000	761.352539	658.984375
4.320000	769.073486	695.605469
4.330000	765.716553	710.864258
4.340000	765.716553	723.071289
4.350000	769.744873	720.019531
4.360000	776.123047	723.071289
4.370000	778.472900	701.708984
4.380000	773.437500	707.812500
4.390000	783.508301	726.123047
4.400000	784.515381	680.346680
4.410000	782.836914	723.071289
4.420000	790.893555	729.174805
4.430000	789.215088	720.019531
4.440000	797.607422	747.485352
4.450000	794.586182	726.123047
4.460000	795.928955	674.243164
4.470000	796.936035	732.226562
4.480000	801.971436	744.433594
4.490000	806.335449	744.433594
4.500000	807.006836	750.537109
4.510000	818.084717	759.692383
4.520000	817.077637	790.209961
4.530000	814.727783	765.795898
4.540000	818.420410	753.588867
4.550000	822.448730	765.795898
4.560000	826.141357	787.158203
4.570000	832.519531	787.158203
4.580000	830.841064	784.106445
4.590000	832.183838	768.847656
4.600000	832.183838	805.468750
4.610000	832.855225	765.795898
4.620000	838.226318	796.313477
4.630000	838.897705	802.416992
4.640000	838.562012	796.313477
4.650000	846.954346	805.468750
4.660000	848.632812	817.675781
4.670000	846.618652	778.002930
4.680000	847.625732	808.520508
4.690000	857.025146	857.348633
4.700000	855.010986	814.624023
4.710000	865.081787	857.348633
4.720000	865.417480	796.313477
4.730000	858.032227	817.675781
4.740000	869.445801	823.779297
4.750000	868.774414	811.572266
4.760000	871.459961	835.986328
4.770000	878.509521	854.296875
4.780000	877.502441	897.021484
4.790000	881.866455	854.296875
4.800000	881.866455	811.572266
4.810000	878.173828	848.193359
4.820000	885.559082	863.452148
4.830000	886.901855	784.106445
4.840000	898.315430	845.141602
4.850000	894.958496	863.452148
4.860000	895.965576	860.400391
4.870000	899.993896	851.245117
4.880000	901.336670	860.400391
4.890000	906.372070	823.779297
4.900000	905.364990	860.400391
4.910000	909.393311	884.814453
4.920000	914.428711	863.452148
4.930000	919.128418	878.710937
4.940000	923.156738	887.866211
4.950000	918.792725	811.572266
4.960000	924.499512	906.176758
4.970000	926.849365	893.969727
4.980000	928.527832	906.176758
4.990000	932.891846	915.332031
5.000000	936.584473	909.228516
5.010000	939.270020	890.917969
5.020000	947.326660	994.677734
5.030000	941.955566	927.539062
5.040000	948.669434	915.332031
5.050000	940.277100	921.435547
5.060000	945.648193	936.694336
5.070000	951.354980	921.435547
5.080000	951.019287	936.694336
5.090000	956.390381	900.073242
5.100000	960.083008	955.004883
5.110000	960.083008	921.435547
5.120000	959.747314	958.056641
5.130000	963.104248	948.901367
5.140000	965.118408	955.004883
5.150000	972.167969	958.056641
5.160000	973.510742	961.108398
5.170000	974.182129	951.953125
5.180000	976.867676	985.522461
5.190000	978.210449	961.108398
5.200000	981.567383	982.470703
5.210000	991.638184	979.418945
5.220000	993.652344	985.522461
5.230000	994.323730	958.056641
5.240000	993.652344	1003.833008
5.250000	999.359131	985.522461
5.260000	997.009277	988.574219
5.270000	1004.058838	979.418945
5.280000	999.023437	1003.833008
5.290000	1009.429932	994.677734
5.300000	1010.437012	994.677734
5.310000	1015.808105	1003.833008
5.320000	1024.536133	1037.402344
5.330000	1016.143799	1031.298828
5.340000	1019.165039	1019.091797
5.350000	1020.507812	1012.988281
5.360000	1023.864746	991.625977
5.370000	1025.543213	1025.195312
5.380000	1034.942627	1022.143555
5.390000	1029.235840	1025.195312
5.400000	1036.621094	1031.298828
5.410000	1033.599854	997.729492
5.420000	1041.656494	1046.557617
5.430000	1040.313721	1031.298828
5.440000	1047.363281	1046.557617
5.450000	1046.691895	1061.816406
5.460000	1050.720215	1043.505859
5.470000	1056.762695	1064.868164
5.480000	1054.077148	1058.764648
5.490000	1055.755615	1074.023437
5.500000	1059.783936	1052.661133
5.510000	1067.169189	1061.816406
5.520000	1061.798096	1046.557617
5.530000	1065.826416	1043.505859
5.540000	1069.854736	1070.971680
5.550000	1069.854736	1107.592773
5.560000	1075.225830	1046.557617
5.570000	1078.918457	1083.178711
5.580000	1077.239990	1095.385742
5.590000	1077.911377	1101.489258
5.600000	1079.589844	1083.178711
5.610000	1085.296631	1101.489258
5.620000	1093.688965	1104.541016
5.630000	1098.052979	1144.213867
5.640000	1095.703125	1104.541016
5.650000	1096.710205	1125.903320
5.660000	1103.088379	1080.126953
5.670000	1101.074219	1141.162109
5.680000	1103.759766	1113.696289
5.690000	1107.116699	1122.851562
5.700000	1106.781006	1128.955078
5.710000	1112.823486	1132.006836
5.720000	1117.187500	1180.834961
5.730000	1119.873047	1135.058594
5.740000	1116.851807	1150.317383
5.750000	1124.908447	1101.489258
5.760000	1124.237061	1168.627930
5.770000	1122.558594	1156.420898
5.780000	1126.586914	1144.213867
5.790000	1133.300781	1153.369141
5.800000	1137.664795	1147.265625
5.810000	1139.678955	1153.369141
5.820000	1142.028809	1196.093750
5.830000	1139.678955	1180.834961
5.840000	1143.035889	1168.627930
5.850000	1156.127930	1156.420898
5.860000	1147.735596	1159.472656
5.870000	1155.120850	1214.404297
5.880000	1151.763916	1186.938477
5.890000	1157.470703	1189.990234
5.900000	1157.135010	1174.731445
5.910000	1161.163330	1205.249023
5.920000	1166.534424	1214.404297
5.930000	1163.177490	1177.783203
5.940000	1177.276611	1220.507812
5.950000	1173.919678	1193.041992
5.960000	1171.905518	1217.456055
5.970000	1178.619385	1199.145508
5.980000	1170.898437	1211.352539
5.990000	1182.983398	1217.456055
6.000000	1183.654785	1235.766602
6.010000	1190.368652	1208.300781
6.020000	1193.054199	1254.077148
6.030000	1190.704346	1223.559570
6.040000	1193.389893	1238.818359
6.050000	1195.739746	1241.870117
6.060000	1196.746826	1238.818359
6.070000	1204.132080	1241.870117
6.080000	1203.796387	1238.818359
6.090000	1205.810547	1263.232422
6.100000	1205.139160	1244.921875
6.110000	1216.888428	1247.973633
6.120000	1217.224121	1272.387695
6.130000	1215.881348	1266.284180
6.140000	1219.909668	1251.025391
6.150000	1219.238281	1278.491211
6.160000	1222.595215	1260.180664
6.170000	1223.937988	1263.232422
6.180000	1223.937988	1284.594727
6.190000	1230.651855	1305.957031
6.200000	1232.330322	1284.594727
6.210000	1226.623535	1281.542969
6.220000	1230.987549	1254.077148
6.230000	1248.779297	1293.750000
6.240000	1241.729736	1284.594727
6.250000	1243.408203	1318.164062
6.260000	1249.114990	1269.335937
6.270000	1254.486084	1315.112305
6.280000	1250.793457	1315.112305
6.290000	1256.500244	1315.112305
6.300000	1259.857178	1321.215820
6.310000	1263.214111	1354.785156
6.320000	1267.913818	1287.646484
6.330000	1266.235352	1351.733398
6.340000	1266.235352	1321.215820
6.350000	1276.306152	1333.422852
6.360000	1273.620605	1342.578125
6.370000	1276.977539	1397.509766
6.380000	1271.270752	1342.578125
6.390000	1287.384033	1339.526367
6.400000	1285.369873	1302.905273
6.410000	1286.376953	1370.043945
6.420000	1284.362793	1348.681641
6.430000	1289.062500	1339.526367
6.440000	1287.048340	1354.785156
6.450000	1296.112061	1385.302734
6.460000	1288.391113	1241.870117
6.470000	1303.833008	1373.095703
6.480000	1304.504395	1373.095703
6.490000	1311.553955	1379.199219
6.500000	1304.840088	1400.561523
6.510000	1312.225342	1388.354492
6.520000	1313.568115	1339.526367
6.530000	1316.925049	1391.406250
6.540000	1321.624756	1403.613281
6.550000	1325.988770	1403.613281
6.560000	1328.674316	1455.493164
6.570000	1331.024170	1394.458008
6.580000	1329.345703	1400.561523
6.590000	1333.038330	1455.493164
6.600000	1332.702637	1415.820312
6.610000	1334.381104	1394.458008
6.620000	1342.437744	1446.337891
6.630000	1343.444824	1409.716797
6.640000	1343.444824	1431.079102
6.650000	1341.430664	1403.613281
6.660000	1347.137451	1455.493164
6.670000	1349.822998	1421.923828
6.680000	1354.187012	1449.389648
6.690000	1357.879639	1409.716797
6.700000	1360.229492	1461.596680
6.710000	1363.250732	1440.234375
6.720000	1367.950439	1452.441406
6.730000	1364.593506	1443.286133
6.740000	1371.978760	1440.234375
6.750000	1375.000000	1467.700195
6.760000	1378.021240	1437.182617
6.770000	1378.021240	1458.544922
6.780000	1373.992920	1464.648437
6.790000	1378.692627	1455.493164
6.800000	1384.399414	1470.751953
6.810000	1388.763428	1476.855469
6.820000	1384.399414	1464.648437
6.830000	1392.120361	1482.958984
6.840000	1393.798828	1486.010742
6.850000	1394.470215	1492.114258
6.860000	1396.820068	1504.321289
6.870000	1395.812988	1495.166016
6.880000	1401.184082	1486.010742
6.890000	1408.569336	1495.166016
6.900000	1405.212402	1431.079102
6.910000	1409.912109	1507.373047
6.920000	1407.226562	1495.166016
6.930000	1415.618896	1531.787109
6.940000	1425.018311	1528.735352
6.950000	1421.325684	1534.838867
6.960000	1419.311523	1513.476562
6.970000	1434.417725	1547.045898
6.980000	1429.046631	1531.787109
6.990000	1433.410645	1543.994141
7.000000	1431.396484	1531.787109
7.010000	1437.774658	1540.942383
7.020000	1437.774658	1528.735352
7.030000	1439.117432	1562.304687
7.040000	1444.488525	1543.994141
7.050000	1454.895020	1562.304687
7.060000	1450.195312	1516.528320
7.070000	1452.545166	1565.356445
7.080000	1459.259033	1537.890625
7.090000	1457.244873	1571.459961
7.100000	1458.587646	1574.511719
7.110000	1457.916260	1580.615234
7.120000	1463.623047	1516.528320
7.130000	1462.280273	1580.615234
7.140000	1471.343994	1598.925781
7.150000	1475.036621	1586.718750
7.160000	1471.008301	1568.408203
7.170000	1476.043701	1577.563477
7.180000	1478.057861	1589.770508
7.190000	1481.750488	1617.236328
7.200000	1484.436035	1605.029297
7.210000	1480.743408	1605.029297
7.220000	1491.821289	1620.288086
7.230000	1489.807129	1608.081055
7.240000	1492.156982	1598.925781
7.250000	1481.079102	1598.925781
7.260000	1497.192383	1623.339844
7.270000	1501.220703	1611.132812
7.280000	1505.249023	1638.598633
7.290000	1506.591797	1632.495117
7.300000	1511.627197	1663.012695
7.310000	1509.613037	1632.495117
7.320000	1520.355225	1629.443359
7.330000	1523.040771	1638.598633
7.340000	1522.033691	1663.012695
7.350000	1518.005371	1644.702148
7.360000	1522.705078	1644.702148
7.370000	1534.118652	1632.495117
7.380000	1527.069092	1663.012695
7.390000	1531.097412	1632.495117
7.400000	1528.747559	1653.857422
7.410000	1532.775879	1678.271484
7.420000	1539.154053	1672.167969
7.430000	1549.224854	1653.857422
7.440000	1546.203613	1690.478516
7.450000	1547.882080	1687.426758
7.460000	1550.231934	1684.375000
7.470000	1553.924561	1687.426758
7.480000	1552.581787	1696.582031
7.490000	1556.945801	1684.375000
7.500000	1557.617187	1696.582031
7.510000	1562.316895	1733.203125
7.520000	1566.009521	1717.944336
7.530000	1568.695068	1711.840820
7.540000	1573.730469	1720.996094
7.550000	1572.052002	1754.565430
7.560000	1567.687988	1711.840820
7.570000	1577.087402	1705.737305
7.580000	1581.787109	1733.203125
7.590000	1580.780029	1714.892578
7.600000	1571.044922	1720.996094
7.610000	1585.144043	1742.358398
7.620000	1589.843750	1733.203125
7.630000	1591.522217	1739.306641
7.640000	1596.557617	1748.461914
7.650000	1595.214844	1714.892578
7.660000	1601.928711	1754.565430
7.670000	1601.928711	1754.565430
7.680000	1605.621338	1760.668945
7.690000	1604.614258	1760.668945
7.700000	1610.992432	1763.720703
7.710000	1609.985352	1684.375000
7.720000	1617.034912	1766.772461
7.730000	1619.049072	1772.875977
7.740000	1622.741699	1757.617187
7.750000	1621.063232	1791.186523
7.760000	1619.720459	1742.358398
7.770000	1628.448486	1775.927734
7.780000	1631.469727	1778.979492
7.790000	1634.826660	1754.565430
7.800000	1625.091553	1760.668945
7.810000	1634.826660	1788.134766
7.820000	1634.490967	1778.979492
7.830000	1638.854980	1809.497070
7.840000	1642.211914	1785.083008
7.850000	1646.240234	1824.755859
7.860000	1646.575928	1791.186523
7.870000	1642.547607	1812.548828
7.880000	1653.625488	1815.600586
7.890000	1656.982422	1827.807617
7.900000	1663.696289	1824.755859
7.910000	1663.696289	1818.652344
7.920000	1662.689209	1815.600586
7.930000	1667.053223	1836.962891
7.940000	1670.410156	1827.807617
7.950000	1666.381836	1836.962891
7.960000	1670.745850	1836.962891
7.970000	1675.781250	1840.014648
7.980000	1679.473877	1858.325195
7.990000	1682.830811	1852.221680
8.000000	1681.152344	1855.273437
8.010000	1686.523437	1846.118164
8.020000	1689.208984	1769.824219
8.030000	1689.880371	1867.480469
8.040000	1690.551758	1882.739258
8.050000	1698.944092	1867.480469
8.060000	1701.629639	1885.791016
8.070000	1704.986572	1885.791016
8.080000	1706.665039	1840.014648
8.090000	1707.672119	1882.739258
8.100000	1712.371826	1891.894531
8.110000	1713.378906	1882.739258
8.120000	1719.421387	1922.412109
8.130000	1715.728760	1919.360352
8.140000	1717.742920	1888.842773
8.150000	1722.778320	1913.256836
8.160000	1723.449707	1916.308594
8.170000	1724.792480	1904.101562
8.180000	1718.414307	1913.256836
8.190000	1732.849121	1910.205078
8.200000	1738.220215	1922.412109
8.210000	1727.478027	1922.412109
8.220000	1735.870361	1925.463867
8.230000	1736.877441	1943.774414
8.240000	1742.584229	1925.463867
8.250000	1743.255615	1934.619141
8.260000	1747.619629	1952.929687
8.270000	1749.633789	1925.463867
8.280000	1756.683350	1934.619141
8.290000	1758.697510	1959.033203
8.300000	1759.033203	1965.136719
8.310000	1759.704590	1955.981445
8.320000	1760.711670	1959.033203
8.330000	1770.111084	1971.240234
8.340000	1774.475098	1977.343750
8.350000	1773.132324	1971.240234
8.360000	1779.174805	2001.757812
8.370000	1780.853271	2013.964844
8.380000	1778.503418	1974.291992
8.390000	1783.203125	1998.706055
8.400000	1786.560059	1971.240234
8.410000	1783.874512	1998.706055
8.420000	1789.916992	1992.602539
8.430000	1789.245605	1998.706055
8.440000	1797.302246	1986.499023
8.450000	1799.316406	2004.809570
8.460000	1797.637939	1992.602539
8.470000	1799.316406	2026.171875
8.480000	1799.316406	1974.291992
8.490000	1804.687500	2029.223633
8.500000	1805.023193	1995.654297
8.510000	1809.387207	2035.327148
8.520000	1815.093994	2017.016602
8.530000	1803.344727	2020.068359
8.540000	1819.122314	2020.068359
8.550000	1822.479248	2059.741211
8.560000	1827.178955	2020.068359
8.570000	1826.171875	2050.585937
8.580000	1826.507568	2032.275391
8.590000	1835.906982	2047.534180
8.600000	1836.578369	2020.068359
8.610000	1837.585449	2059.741211
8.620000	1843.963623	2050.585937
8.630000	1838.256836	2056.689453
8.640000	1841.949463	2068.896484
8.650000	1848.999023	2059.741211
8.660000	1850.341797	2050.585937
8.670000	1851.348877	2068.896484
8.680000	1857.727051	2087.207031
8.690000	1859.741211	2029.223633
8.700000	1864.440918	2084.155273
8.710000	1856.719971	2087.207031
8.720000	1862.426758	2105.517578
8.730000	1868.469238	2084.155273
8.740000	1874.511719	2096.362305
8.750000	1873.504639	2102.465820
8.760000	1875.854492	2129.931641
8.770000	1879.547119	2093.310547
8.780000	1875.183105	2117.724609
8.790000	1888.275146	2096.362305
8.800000	1890.960693	2200.122070
8.810000	1884.918213	2120.776367
8.820000	1887.939453	2151.293945
8.830000	1889.282227	2120.776367
8.840000	1891.632080	2136.035156
8.850000	1900.360107	2136.035156
8.860000	1903.045654	2139.086914
8.870000	1904.052734	2123.828125
8.880000	1902.038574	2151.293945
8.890000	1905.731201	2132.983398
8.900000	1911.773682	2108.569336
8.910000	1914.794922	2139.086914
8.920000	1918.487549	2181.811523
8.930000	1918.151855	2178.759766
8.940000	1920.166016	2166.552734
8.950000	1924.194336	2166.552734
8.960000	1919.494629	2136.035156
8.970000	1931.915283	2175.708008
8.980000	1934.265137	2187.915039
8.990000	1935.607910	2194.018555
9.000000	1935.272217	2181.811523
9.010000	1931.915283	2175.708008
9.020000	1939.636230	2215.380859
9.030000	1942.657471	2184.863281
9.040000	1945.007324	2200.122070
9.050000	1946.350098	2181.811523
9.060000	1945.343018	2203.173828
9.070000	1948.364258	2190.966797
9.080000	1954.071045	2270.312500
9.090000	1957.092285	2218.432617
9.100000	1961.120605	2227.587891
9.110000	1960.113525	2227.587891
9.120000	1969.848633	2181.811523
9.130000	1964.141846	2233.691406
9.140000	1970.855713	2236.743164
9.150000	1979.248047	2285.571289
9.160000	1970.855713	2230.639648
9.170000	1979.248047	2239.794922
9.180000	1981.262207	2242.846680
9.190000	1982.940674	2264.208984
9.200000	1986.297607	2264.208984
9.210000	1985.626221	2261.157227
9.220000	1991.333008	2245.898437
9.230000	1995.025635	2285.571289
9.240000	1999.053955	2273.364258
9.250000	1996.032715	2248.950195
9.260000	1995.361328	2258.105469
9.270000	2000.061035	2273.364258
9.280000	2003.417969	2276.416016
9.290000	2005.096436	2279.467773
9.300000	2012.817383	2306.933594
9.310000	2014.495850	2267.260742
9.320000	2014.495850	2279.467773
9.330000	2015.167236	2239.794922
9.340000	2022.888184	2300.830078
9.350000	2022.216797	2297.778320
9.360000	2020.874023	2233.691406
9.370000	2027.587891	2309.985352
9.380000	2026.245117	2325.244141
9.390000	2025.238037	2331.347656
9.400000	2036.651611	2325.244141
9.410000	2046.051025	2346.606445
9.420000	2045.043945	2331.347656
9.430000	2043.701172	2337.451172
9.440000	2051.757812	2306.933594
9.450000	2046.386719	2367.968750
9.460000	2046.722412	2346.606445
9.470000	2056.457520	2364.916992
9.480000	2055.786133	2349.658203
9.490000	2061.492920	2358.813477
9.500000	2061.828613	2349.658203
9.510000	2061.828613	2358.813477
9.520000	2071.228027	2395.434570
9.530000	2067.871094	2355.761719
9.540000	2066.192627	2386.279297
9.550000	2072.235107	2361.865234
9.560000	2080.963135	2383.227539
9.570000	2080.627441	2377.124023
9.580000	2079.620361	2404.589844
9.590000	2086.334229	2392.382812
9.600000	2083.312988	2386.279297
9.610000	2085.662842	2392.382812
9.620000	2088.684082	2401.538086
9.630000	2091.369629	2395.434570
9.640000	2095.062256	2435.107422
9.650000	2090.026855	2392.382812
9.660000	2099.761963	2425.952148
9.670000	2105.133057	2416.796875
9.680000	2104.125977	2432.055664
9.690000	2106.811523	2398.486328
9.700000	2110.504150	2432.055664
9.710000	2108.154297	2419.848633
9.720000	2112.182617	2432.055664
9.730000	2118.225098	2483.935547
9.740000	2117.889404	2438.159180
9.750000	2121.917725	2438.159180
9.760000	2126.953125	2447.314453
9.770000	2128.967285	2474.780273
9.780000	2129.974365	2453.417969
9.790000	2128.295898	2450.366211
9.800000	2129.638672	2462.573242
9.810000	2136.688232	2471.728516
9.820000	2148.101807	2483.935547
9.830000	2144.409180	2483.935547
9.840000	2146.423340	2471.728516
9.850000	2144.073486	2450.366211
9.860000	2146.759033	2474.780273
9.870000	2154.479980	2456.469727
9.880000	2155.822754	2499.194336
9.890000	2157.165527	2499.194336
9.900000	2157.165527	2493.090820
9.910000	2158.508301	2505.297852
9.920000	2166.900635	2514.453125
9.930000	2164.215088	2511.401367
9.940000	2172.943115	2493.090820
9.950000	2171.264648	2496.142578
9.960000	2178.985596	2514.453125
9.970000	2182.006836	2520.556641
9.980000	2179.992676	2526.660156
9.990000	2183.349609	2532.763672
10.000000	2190.399170	2544.970703
10.010000	2185.363770	2477.832031
10.020000	2188.720703	2541.918945
10.030000	2195.098877	2535.815430
10.040000	2199.798584	2526.660156
10.050000	2197.448730	2548.022461
10.060000	2196.777344	2523.608398
10.070000	2196.105957	2554.125977
10.080000	2204.162598	2554.125977
10.090000	2210.876465	2557.177734
10.100000	2210.540771	2548.022461
10.110000	2211.883545	2575.488281
10.120000	2216.583252	2551.074219
10.130000	2213.897705	2557.177734
10.140000	2221.282959	2566.333008
10.150000	2219.940186	2581.591797
10.160000	2220.947266	2557.177734
10.170000	2230.682373	2596.850586
10.180000	2227.996826	2602.954102
10.190000	2228.668213	2554.125977
10.200000	2234.375000	2639.575195
10.210000	2237.731934	2596.850586
10.220000	2244.445801	2618.212891
10.230000	2243.103027	2618.212891
10.240000	2245.117187	2636.523437
10.250000	2247.467041	2615.161133
10.260000	2245.117187	2627.368164
10.270000	2256.195068	2630.419922
10.280000	2256.530762	2639.575195
10.290000	2256.530762	2621.264648
10.300000	2262.908936	2660.937500
10.310000	2261.230469	2599.902344
10.320000	2268.615723	2667.041016
10.330000	2265.930176	2639.575195
10.340000	2268.615723	2648.730469
10.350000	2271.972656	2645.678711
10.360000	2275.665283	2673.144531
10.370000	2280.029297	2651.782227
10.380000	2275.665283	2657.885742
10.390000	2280.700684	2676.196289
10.400000	2287.078857	2691.455078
10.410000	2288.757324	2679.248047
10.420000	2291.778564	2676.196289
10.430000	2294.799805	2679.248047
10.440000	2294.799805	2679.248047
10.450000	2301.849365	2697.558594
10.460000	2297.821045	2667.041016
10.470000	2304.199219	2700.610352
10.480000	2303.863525	2703.662109
10.490000	2310.913086	2706.713867
10.500000	2309.906006	2679.248047
10.510000	2310.913086	2709.765625
10.520000	2317.962646	2715.869141
10.530000	2321.655273	2709.765625
10.540000	2321.319580	2734.179687
10.550000	2323.669434	2728.076172
10.560000	2327.697754	2663.989258
10.570000	2330.383301	2718.920898
10.580000	2329.376221	2764.697266
10.590000	2333.404541	2728.076172
10.600000	2337.768555	2700.610352
10.610000	2337.097168	2731.127930
10.620000	2341.461182	2758.593750
10.630000	2341.796875	2752.490234
10.640000	2343.811035	2676.196289
10.650000	2346.832275	2776.904297
10.660000	2350.524902	2758.593750
10.670000	2355.560303	2789.111328
10.680000	2352.874756	2758.593750
10.690000	2360.931396	2776.904297
10.700000	2360.931396	2749.438477
10.710000	2363.281250	2804.370117
10.720000	2368.316650	2792.163086
10.730000	2360.260010	2789.111328
10.740000	2368.988037	2847.094727
10.750000	2367.645264	2779.956055
10.760000	2373.687744	2770.800781
10.770000	2376.708984	2816.577148
10.780000	2382.751465	2773.852539
10.790000	2385.101318	2822.680664
10.800000	2386.108398	2825.732422
10.810000	2392.150879	2822.680664
10.820000	2389.129639	2828.784180
10.830000	2391.479492	2798.266602
10.840000	2397.857666	2847.094727
10.850000	2395.507812	2819.628906
10.860000	2401.885986	2847.094727
10.870000	2410.949707	2859.301758
10.880000	2404.235840	2862.353516
10.890000	2406.585693	2840.991211
10.900000	2411.621094	2865.405273
10.910000	2408.599854	2801.318359
10.920000	2412.292480	2853.198242
10.930000	2411.285400	2862.353516
10.940000	2422.698975	2859.301758
10.950000	2421.691895	2856.250000
10.960000	2424.713135	2920.336914
10.970000	2432.434082	2883.715820
10.980000	2432.098389	2892.871094
10.990000	2430.084229	2880.664062
11.000000	2432.098389	2883.715820
11.010000	2441.497803	2908.129883
11.020000	2442.504883	2929.492187
11.030000	2439.483643	2886.767578
11.040000	2434.448242	2902.026367
11.050000	2446.197510	2877.612305
11.060000	2450.897217	2944.750977
11.070000	2455.932617	2923.388672
11.080000	2451.568604	2923.388672
11.090000	2458.282471	2898.974609
11.100000	2462.982178	2926.440430
11.110000	2457.275391	2926.440430
11.120000	2462.310791	2953.906250
11.130000	2464.996338	2923.388672
11.140000	2471.710205	2963.061523
11.150000	2472.381592	2960.009766
11.160000	2476.074219	2984.423828
11.170000	2480.438232	2981.372070
11.180000	2480.102539	2956.958008
11.190000	2481.109619	2975.268555
11.200000	2483.123779	2969.165039
11.210000	2485.137939	2950.854492
11.220000	2493.530273	2969.165039
11.230000	2488.830566	2938.647461
11.240000	2495.880127	2993.579102
11.250000	2499.237061	2993.579102
11.260000	2503.936768	2975.268555
11.270000	2504.272461	2990.527344
11.280000	2505.615234	3027.148437
11.290000	2508.300781	2911.181641
11.300000	2515.350342	2987.475586
11.310000	2511.657715	3030.200195
11.320000	2518.371582	3002.734375
11.330000	2515.014648	3008.837891
11.340000	2521.728516	3027.148437
11.350000	2524.414062	2969.165039
11.360000	2529.449463	3014.941406
11.370000	2535.156250	3033.251953
11.380000	2531.799316	3033.251953
11.390000	2531.463623	3045.458984
11.400000	2535.827637	3011.889648
11.410000	2538.177490	3057.666016
11.420000	2541.534424	3045.458984
11.430000	2543.884277	3091.235352
11.440000	2548.248291	3066.821289
11.450000	2550.933838	3005.786133
11.460000	2549.591064	3057.666016
11.470000	2555.969238	3094.287109
11.480000	2553.955078	3063.769531
11.490000	2555.297852	3112.597656
11.500000	2559.661865	3088.183594
11.510000	2566.040039	3088.183594
11.520000	2566.711426	3091.235352
11.530000	2570.739746	3097.338867
11.540000	2566.040039	3109.545898
11.550000	2571.075439	3100.390625
11.560000	2575.103760	3115.649414
11.570000	2586.181641	3127.856445
11.580000	2582.489014	3103.442383
11.590000	2581.146240	3124.804687
11.600000	2587.188721	3127.856445
11.610000	2586.853027	3140.063477
11.620000	2590.881348	3124.804687
11.630000	2597.259521	3130.908203
11.640000	2600.280762	3100.390625
11.650000	2602.630615	3146.166992
11.660000	2597.930908	3124.804687
11.670000	2607.666016	3130.908203
11.680000	2604.644775	3152.270508
11.690000	2609.008789	3201.098633
11.700000	2607.666016	3185.839844
11.710000	2609.344482	3164.477539
11.720000	2614.044189	3173.632812
11.730000	2618.408203	3170.581055
11.740000	2617.065430	3140.063477
11.750000	2621.765137	3176.684570
11.760000	2628.814697	3210.253906
11.770000	2629.486084	3201.098633
11.780000	2628.814697	3182.788086
11.790000	2636.199951	3191.943359
11.800000	2631.835937	3201.098633
11.810000	2636.199951	3207.202148
11.820000	2642.913818	3179.736328
11.830000	2646.606445	3213.305664
11.840000	2648.284912	3256.030273
11.850000	2650.634766	3222.460937
11.860000	2651.641846	3243.823242
11.870000	2654.998779	3225.512695
11.880000	2655.670166	3243.823242
11.890000	2660.034180	3234.667969
11.900000	2666.748047	3265.185547
11.910000	2671.447754	3231.616211
11.920000	2676.147461	3259.082031
11.930000	2670.776367	3259.082031
11.940000	2671.447754	3262.133789
11.950000	2670.440674	3252.978516
11.960000	2670.440674	3262.133789
11.970000	2681.182861	3265.185547
11.980000	2683.197021	3259.082031
11.990000	2681.182861	3271.289062
12.000000	2690.917969	3277.392578
12.010000	2685.882568	3295.703125
12.020000	2691.925049	3292.651367
12.030000	2689.575195	3216.357422
12.040000	2694.274902	3304.858398
12.050000	2703.002930	3332.324219
12.060000	2695.953369	3344.531250
12.070000	2701.660156	3317.065430
12.080000	2701.995850	3289.599609
12.090000	2705.688477	3301.806641
12.100000	2701.660156	3323.168945
12.110000	2711.730957	3329.272461
12.120000	2714.416504	3317.065430
12.130000	2716.094971	3338.427734
12.140000	2711.059570	3323.168945
12.150000	2722.473145	3341.479492
12.160000	2725.158691	3344.531250
12.170000	2731.201172	3375.048828
12.180000	2728.851318	3347.583008
12.190000	2730.529785	3356.738281
12.200000	2742.950439	3393.359375
12.210000	2730.865479	3332.324219
12.220000	2740.600586	3359.790039
12.230000	2738.586426	3365.893555
12.240000	2743.286133	3390.307617
12.250000	2753.356934	3408.618164
12.260000	2752.014160	3393.359375
12.270000	2756.042480	3408.618164
12.280000	2751.342773	3399.462891
12.290000	2767.791748	3402.514648
12.300000	2758.728027	3411.669922
12.310000	2761.749268	3414.721680
12.320000	2765.777588	3420.825195
12.330000	2770.141602	3433.032227
12.340000	2773.834229	3433.032227
12.350000	2771.484375	3393.359375
12.360000	2776.184082	3451.342773
12.370000	2779.541016	3439.135742
12.380000	2782.226562	3457.446289
12.390000	2788.269043	3448.291016
12.400000	2781.890869	3445.239258
12.410000	2784.576416	3454.394531
12.420000	2793.640137	3457.446289
12.430000	2791.625977	3442.187500
12.440000	2798.004150	3533.740234
12.450000	2796.325684	3457.446289
12.460000	2798.004150	3472.705078
12.470000	2802.703857	3484.912109
12.480000	2807.739258	3484.912109
12.490000	2812.774658	3475.756836
12.500000	2809.082031	3500.170898
12.510000	2810.089111	3460.498047
12.520000	2815.124512	3500.170898
12.530000	2818.145752	3484.912109
12.540000	2819.824219	3512.377930
12.550000	2826.202393	3506.274414
12.560000	2824.523926	3515.429687
12.570000	2828.887939	3518.481445
12.580000	2825.866699	3533.740234
12.590000	2827.880859	3512.377930
12.600000	2833.923340	3536.791992
12.610000	2837.615967	3524.584961
12.620000	2843.322754	3548.999023
12.630000	2842.651367	3533.740234
12.640000	2846.343994	3570.361328
12.650000	2841.644287	3558.154297
12.660000	2848.693848	3576.464844
12.670000	2854.736328	3518.481445
12.680000	2859.436035	3591.723633
12.690000	2853.393555	3530.688477
12.700000	2861.785889	3573.413086
12.710000	2862.121582	3576.464844
12.720000	2866.821289	3585.620117
12.730000	2869.171143	3594.775391
12.740000	2869.842529	3579.516602
12.750000	2871.856689	3631.396484
12.760000	2876.220703	3664.965820
12.770000	2878.234863	3613.085937
12.780000	2876.556396	3597.827148
12.790000	2882.598877	3625.292969
12.800000	2885.955811	3613.085937
12.810000	2890.655518	3628.344727
12.820000	2893.341064	3634.448242
12.830000	2893.005371	3680.224609
12.840000	2900.390625	3643.603516
12.850000	2898.040771	3716.845703
12.860000	2897.033691	3606.982422
12.870000	2906.768799	3628.344727
12.880000	2905.090332	3646.655273
12.890000	2909.790039	3619.189453
12.900000	2911.804199	3655.810547
12.910000	2911.468506	3680.224609
12.920000	2927.246094	3671.069336
12.930000	2920.196533	3661.914062
12.940000	2921.875000	3668.017578
12.950000	2915.496826	3701.586914
12.960000	2923.217773	3689.379883
12.970000	2930.603027	3692.431641
12.980000	2930.267334	3689.379883
12.990000	2935.302734	3719.897461
13.000000	2938.659668	3692.431641
13.010000	2937.988281	3692.431641
13.020000	2941.345215	3704.638672
13.030000	2946.716309	3735.156250
13.040000	2950.744629	3722.949219
13.050000	2952.087402	3744.311523
13.060000	2955.108643	3726.000977
13.070000	2953.430176	3741.259766
13.080000	2955.108643	3732.104492
13.090000	2954.772949	3762.622070
13.100000	2956.115723	3674.121094
13.110000	2960.815430	3756.518555
13.120000	2962.829590	3759.570312
13.130000	2967.864990	3747.363281
13.140000	2972.900391	3811.450195
13.150000	2976.257324	3765.673828
13.160000	2969.207764	3787.036133
13.170000	2976.593018	3774.829102
13.180000	2980.285645	3793.139648
13.190000	2988.006592	3802.294922
13.200000	2990.692139	3738.208008
13.210000	2987.670898	3787.036133
13.220000	2992.706299	3808.398437
13.230000	2995.056152	3771.777344
13.240000	2996.063232	3823.657227
13.250000	2991.363525	3814.501953
13.260000	2998.413086	3823.657227
13.270000	2993.377686	3817.553711
13.280000	3002.777100	3835.864258
13.290000	3008.148193	3848.071289
13.300000	3015.869141	3845.019531
13.310000	3012.512207	3829.760742
13.320000	3018.890381	3860.278320
13.330000	3018.890381	3835.864258
13.340000	3020.904541	3878.588867
13.350000	3026.275635	3854.174805
13.360000	3025.604248	3899.951172
13.370000	3030.975342	3875.537109
13.380000	3030.303955	3945.727539
13.390000	3032.653809	3878.588867
13.400000	3030.639648	3878.588867
13.410000	3037.689209	3906.054687
13.420000	3040.710449	3851.123047
13.430000	3032.318115	3878.588867
13.440000	3044.403076	3893.847656
13.450000	3051.452637	3948.779297
13.460000	3052.795410	3915.209961
13.470000	3054.809570	3906.054687
13.480000	3056.488037	3951.831055
13.490000	3059.844971	3936.572266
13.500000	3064.208984	3841.967773
13.510000	3066.558838	3945.727539
13.520000	3067.565918	3948.779297
13.530000	3066.558838	3948.779297
13.540000	3063.537598	3948.779297
13.550000	3078.979492	3960.986328
13.560000	3071.258545	3939.624023
13.570000	3085.357666	3979.296875
13.580000	3084.350586	3967.089844
13.590000	3079.315186	3957.934570
13.600000	3083.679199	3964.038086
13.610000	3084.350586	3994.555664
13.620000	3092.742920	3997.607422
13.630000	3091.735840	3976.245117
13.640000	3094.421387	3991.503906
13.650000	3098.785400	3988.452148
13.660000	3101.470947	3912.158203
13.670000	3106.170654	4046.435547
13.680000	3104.827881	4022.021484
13.690000	3110.198975	4022.021484
13.700000	3108.856201	4025.073242
13.710000	3110.198975	4043.383789
13.720000	3115.570068	4092.211914
13.730000	3116.912842	4049.487305
13.740000	3123.626709	4034.228516
13.750000	3127.319336	4076.953125
13.760000	3126.312256	4061.694336
13.770000	3128.326416	4076.953125
13.780000	3130.004883	4046.435547
13.790000	3133.361816	4070.849609
13.800000	3133.697510	4028.125000
13.810000	3131.347656	4064.746094
13.820000	3140.411377	4086.108398
13.830000	3143.432617	4055.590820
13.840000	3147.460937	4095.263672
13.850000	3145.446777	4086.108398
13.860000	3147.796631	4095.263672
13.870000	3152.496338	4098.315430
13.880000	3148.132324	4113.574219
13.890000	3156.188965	4134.936523
13.900000	3162.567139	4131.884766
13.910000	3153.503418	4128.833008
13.920000	3162.567139	4141.040039
13.930000	3164.916992	4141.040039
13.940000	3164.916992	4113.574219
13.950000	3174.987793	4128.833008
13.960000	3176.330566	4180.712891
13.970000	3178.344727	4159.350586
13.980000	3177.673340	4141.040039
13.990000	3182.037354	4165.454102
14.000000	3194.458008	4186.816406
14.010000	3187.744141	4183.764648
14.020000	3189.758301	4192.919922
14.030000	3192.779541	4153.247070
14.040000	3194.458008	4195.971680
14.050000	3193.115234	4186.816406
14.060000	3199.157715	4195.971680
14.070000	3205.871582	4199.023437
14.080000	3208.892822	4226.489258
14.090000	3208.892822	4208.178711
14.100000	3208.557129	4220.385742
14.110000	3208.892822	4195.971680
14.120000	3217.956543	4229.541016
14.130000	3218.627930	4232.592773
14.140000	3221.649170	4275.317383
14.150000	3228.363037	4247.851562
14.160000	3224.334717	4247.851562
14.170000	3231.048584	4260.058594
14.180000	3228.027344	4260.058594
14.190000	3230.712891	4260.058594
14.200000	3229.705811	4275.317383
14.210000	3236.755371	4281.420898
14.220000	3239.440918	4272.265625
14.230000	3241.119385	4287.524414
14.240000	3248.840332	4284.472656
14.250000	3253.875732	4308.886719
14.260000	3249.176025	4257.006836
14.270000	3250.518799	4302.783203
14.280000	3256.561279	4339.404297
14.290000	3257.232666	4308.886719
14.300000	3264.953613	4327.197266
14.310000	3263.275146	4305.834961
14.320000	3265.960693	4330.249023
14.330000	3267.639160	4339.404297
14.340000	3268.981934	4330.249023
14.350000	3270.996094	4348.559570
14.360000	3274.353027	4357.714844
14.370000	3278.717041	4330.249023
14.380000	3277.709961	4348.559570
14.390000	3280.059814	4363.818359
14.400000	3283.416748	4327.197266
14.410000	3287.445068	4382.128906
14.420000	3294.494629	4379.077148
14.430000	3292.144775	4415.698242
14.440000	3299.194336	4351.611328
14.450000	3295.166016	4385.180664
14.460000	3295.837402	4305.834961
14.470000	3307.250977	4412.646484
14.480000	3311.279297	4421.801758
14.490000	3307.250977	4485.888672
14.500000	3315.643311	4409.594727
14.510000	3311.279297	4452.319336
14.520000	3315.643311	4427.905273
14.530000	3315.979004	4430.957031
14.540000	3317.657471	4397.387695
14.550000	3322.021484	4458.422852
14.560000	3322.021484	4449.267578
14.570000	3328.399658	4382.128906
14.580000	3328.063965	4452.319336
14.590000	3326.385498	4443.164062
14.600000	3336.791992	4482.836914
14.610000	3334.442139	4482.836914
14.620000	3340.148926	4470.629883
14.630000	3341.827393	4479.785156
14.640000	3347.869873	4516.406250
14.650000	3354.919434	4488.940430
14.660000	3348.541260	4510.302734
14.670000	3348.205566	4498.095703
14.680000	3353.576660	4516.406250
14.690000	3360.961914	4488.940430
14.700000	3360.290527	4537.768555
14.710000	3362.304687	4525.561523
14.720000	3364.990234	4522.509766
14.730000	3364.318848	4534.716797
14.740000	3369.354248	4546.923828
14.750000	3375.061035	4559.130859
14.760000	3372.039795	4559.130859
14.770000	3374.389648	4543.872070
14.780000	3378.417969	4510.302734
14.790000	3378.417969	4556.079102
14.800000	3387.145996	4595.751953
14.810000	3391.174316	4577.441406
14.820000	3392.517090	4580.493164
14.830000	3389.495850	4522.509766
14.840000	3398.559570	4595.751953
14.850000	3401.580811	4607.958984
14.860000	3399.230957	4592.700195
14.870000	3404.602051	4611.010742
14.880000	3409.973145	4632.373047
14.890000	3409.301758	4626.269531
14.900000	3416.687012	4638.476562
14.910000	3414.337158	4617.114258
14.920000	3418.365479	4644.580078
14.930000	3420.043945	4644.580078
14.940000	3421.722412	4620.166016
14.950000	3422.729492	4656.787109
14.960000	3427.429199	4693.408203
14.970000	3432.800293	4668.994141
14.980000	3433.807373	4678.149414
14.990000	3437.500000	4690.356445
15.000000	3441.528320	4717.822266
15.010000	3434.143066	4690.356445
15.020000	3439.849854	4690.356445
15.030000	3441.192627	4699.511719
15.040000	3447.235107	4693.408203
15.050000	3449.584961	4647.631836
15.060000	3450.256348	4711.718750
15.070000	3456.298828	4739.184570
15.080000	3458.312988	4711.718750
15.090000	3460.662842	4675.097656
15.100000	3464.019775	4726.977539
15.110000	3460.662842	4742.236328
15.120000	3464.355469	4742.236328
15.130000	3467.041016	4760.546875
15.140000	3467.712402	4742.236328
15.150000	3474.090576	4760.546875
15.160000	3478.118896	4775.805664
15.170000	3480.468750	4781.909180
15.180000	3477.783203	4769.702148
15.190000	3482.818604	4794.116211
15.200000	3488.189697	4803.271484
15.210000	3490.875244	4794.116211
15.220000	3490.203857	4806.323242
15.230000	3492.889404	4733.081055
15.240000	3497.924805	4815.478516
15.250000	3492.553711	4775.805664
15.260000	3491.210937	4818.530273
15.270000	3499.603271	4827.685547
15.280000	3507.995605	4849.047852
15.290000	3504.638672	4830.737305
15.300000	3510.345459	4833.789062
15.310000	3514.038086	4879.565430
15.320000	3521.423340	4867.358398
15.330000	3518.066406	4855.151367
15.340000	3515.380859	4876.513672
15.350000	3518.737793	4845.996094
15.360000	3522.094727	4870.410156
15.370000	3525.451660	4879.565430
15.380000	3529.815674	4916.186523
15.390000	3534.179687	4876.513672
15.400000	3536.193848	4861.254883
15.410000	3539.886475	4900.927734
15.420000	3544.921875	4922.290039
15.430000	3544.921875	4903.979492
15.440000	3541.229248	4937.548828
15.450000	3546.264648	4916.186523
15.460000	3550.628662	4925.341797
15.470000	3554.321289	4937.548828
15.480000	3553.985596	4961.962891
15.490000	3549.957275	4949.755859
15.500000	3565.399170	4952.807617
15.510000	3563.720703	4965.014648
15.520000	3564.392090	4961.962891
15.530000	3567.413330	4958.911133
15.540000	3569.427490	4974.169922
15.550000	3574.127197	4940.600586
15.560000	3573.791504	5013.842773
15.570000	3571.105957	4992.480469
15.580000	3571.777344	5007.739258
15.590000	3586.547852	5087.084961
15.600000	3587.554932	5001.635742
15.610000	3583.526611	5026.049805
15.620000	3592.254639	5050.463867
15.630000	3594.940186	5041.308594
15.640000	3597.290039	5038.256836
15.650000	3594.940186	5035.205078
15.660000	3604.003906	5044.360352
15.670000	3605.010986	5050.463867
15.680000	3609.375000	5032.153320
15.690000	3611.389160	5090.136719
15.700000	3610.717773	4986.376953
15.710000	3613.739014	5084.033203
15.720000	3618.774414	5059.619141
15.730000	3622.467041	5074.877930
15.740000	3619.781494	5087.084961
15.750000	3621.459961	5123.706055
15.760000	3627.166748	5102.343750
15.770000	3631.530762	5123.706055
15.780000	3637.573242	5126.757812
15.790000	3634.887695	5111.499023
15.800000	3636.230469	5126.757812
15.810000	3638.244629	5151.171875
15.820000	3643.280029	5142.016602
15.830000	3636.901855	5166.430664
15.840000	3646.972656	5145.068359
15.850000	3652.343750	5175.585937
15.860000	3649.322510	5154.223633
15.870000	3655.364990	5196.948242
15.880000	3654.693604	5163.378906
15.890000	3657.043457	5181.689453
15.900000	3665.100098	5184.741211
15.910000	3661.071777	5193.896484
15.920000	3666.107178	5206.103516
15.930000	3669.799805	5209.155273
15.940000	3668.121338	5203.051758
15.950000	3674.835205	5236.621094
15.960000	3677.520752	5212.207031
15.970000	3676.177979	5239.672852
15.980000	3675.842285	5203.051758
15.990000	3681.549072	5245.776367
16.000000	3685.913086	5233.569336
16.010000	3687.591553	5264.086914
16.020000	3693.969727	5273.242187
16.030000	3693.969727	5273.242187
16.040000	3693.634033	5279.345703
16.050000	3693.298340	5242.724609
16.060000	3697.662354	5294.604492
16.070000	3706.390381	5291.552734
16.080000	3707.397461	5322.070312
16.090000	3713.439941	5315.966797
16.100000	3718.475342	5337.329102
16.110000	3713.439941	5319.018555
16.120000	3716.461182	5319.018555
16.130000	3717.803955	5343.432617
16.140000	3721.160889	5367.846680
16.150000	3720.825195	5337.329102
16.160000	3722.167969	5355.639648
16.170000	3728.210449	5340.380859
16.180000	3729.217529	5337.329102
16.190000	3734.252930	5349.536133
16.200000	3735.595703	5319.018555
16.210000	3736.267090	5373.950195
16.220000	3738.281250	5383.105469
16.230000	3741.638184	5367.846680
16.240000	3744.323730	5425.830078
16.250000	3747.344971	5389.208984
16.260000	3755.401611	5404.467773
16.270000	3750.030518	5422.778320
16.280000	3750.701904	5373.950195
16.290000	3757.415771	5447.192383
16.300000	3764.465332	5422.778320
16.310000	3762.115479	5431.933594
16.320000	3768.829346	5447.192383
16.330000	3767.150879	5450.244141
16.340000	3768.829346	5441.088867
16.350000	3766.143799	5465.502930
16.360000	3776.550293	5483.813477
16.370000	3779.907227	5477.709961
16.380000	3783.599854	5499.072266
16.390000	3782.257080	5486.865234
16.400000	3789.642334	5486.865234
16.410000	3787.963867	5496.020508
16.420000	3792.327881	5499.072266
16.430000	3790.985107	5505.175781
16.440000	3793.670654	5450.244141
16.450000	3798.706055	5532.641602
16.460000	3800.048828	5529.589844
16.470000	3804.077148	5547.900391
16.480000	3804.412842	5523.486328
16.490000	3804.412842	5538.745117
16.500000	3809.783936	5557.055664
16.510000	3814.147949	5560.107422
16.520000	3814.147949	5584.521484
16.530000	3816.833496	5608.935547
16.540000	3820.526123	5587.573242
16.550000	3826.232910	5532.641602
16.560000	3829.925537	5590.625000
16.570000	3828.918457	5572.314453
16.580000	3828.582764	5599.780273
16.590000	3831.939697	5608.935547
16.600000	3839.996338	5621.142578
16.610000	3834.289551	5639.453125
16.620000	3838.989258	5618.090820
16.630000	3842.346191	5673.022461
16.640000	3845.703125	5618.090820
16.650000	3846.038818	5660.815430
16.660000	3846.710205	5660.815430
16.670000	3855.438232	5676.074219
16.680000	3856.445312	5709.643555
16.690000	3857.116699	5700.488281
16.700000	3862.152100	5666.918945
16.710000	3858.459473	5697.436523
16.720000	3869.873047	5691.333008
16.730000	3867.523193	5688.281250
16.740000	3869.201660	5727.954102
16.750000	3871.551514	5721.850586
16.760000	3877.929687	5770.678711
16.770000	3880.950928	5737.109375
16.780000	3884.979248	5746.264648
16.790000	3884.307861	5657.763672
16.800000	3883.636475	5743.212891
16.810000	3890.350342	5758.471680
16.820000	3890.686035	5776.782227
16.830000	3891.357422	5740.161133
16.840000	3898.071289	5782.885742
16.850000	3903.106689	5770.678711
16.860000	3902.770996	5846.972656
16.870000	3901.763916	5715.747070
16.880000	3900.756836	5807.299805
16.890000	3910.156250	5804.248047
16.900000	3914.855957	5886.645508
16.910000	3906.127930	5825.610352
16.920000	3917.541504	5846.972656
16.930000	3913.848877	5828.662109
16.940000	3917.205811	5853.076172
16.950000	3925.933838	5840.869141
16.960000	3924.591064	5880.541992
16.970000	3932.312012	5850.024414
16.980000	3926.269531	5901.904297
16.990000	3931.976318	5880.541992
17.000000	3942.382812	5923.266602
17.010000	3946.075439	5901.904297
17.020000	3943.054199	5895.800781
17.030000	3943.725586	5908.007812
17.040000	3947.753906	5959.887695
17.050000	3936.676025	5917.163086
17.060000	3949.096680	5953.784180
17.070000	3957.489014	5953.784180
17.080000	3957.153320	5959.887695
17.090000	3954.803467	5956.835937
17.100000	3960.174561	5959.887695
17.110000	3961.517334	5965.991211
17.120000	3960.174561	5975.146484
17.130000	3968.231201	5990.405273
17.140000	3975.280762	6014.819336
17.150000	3965.881348	5953.784180
17.160000	3972.595215	5996.508789
17.170000	3980.987549	6014.819336
17.180000	3980.651855	6011.767578
17.190000	3982.666016	6023.974609
17.200000	3987.030029	6033.129883
17.210000	3987.365723	6033.129883
17.220000	3994.079590	6048.388672
17.230000	3984.344482	6069.750977
17.240000	3991.729736	6051.440430
17.250000	3992.736816	6072.802734
17.260000	3989.379883	6069.750977
17.270000	3997.772217	6097.216797
17.280000	4006.164551	6066.699219
17.290000	4005.828857	6081.958008
17.300000	4016.906738	6130.786133
17.310000	4011.871338	6109.423828
17.320000	4018.249512	6149.096680
17.330000	4013.549805	6133.837891
17.340000	4022.949219	6124.682617
17.350000	4025.634766	6161.303711
17.360000	4025.634766	6142.993164
17.370000	4027.648926	6158.251953
17.380000	4035.034180	6167.407227
17.390000	4030.334473	6176.562500
17.400000	4031.005859	6173.510742
17.410000	4032.684326	6194.873047
17.420000	4041.412354	6182.666016
17.430000	4043.426514	6219.287109
17.440000	4043.090820	6210.131836
17.450000	4046.783447	6207.080078
17.460000	4049.804687	6237.597656
17.470000	4061.553955	6219.287109
17.480000	4058.532715	6231.494141
17.490000	4051.483154	6249.804687
17.500000	4062.561035	6249.804687
17.510000	4059.539795	6255.908203
17.520000	4065.582275	6277.270508
17.530000	4068.267822	6243.701172
17.540000	4063.568115	6304.736328
17.550000	4074.981689	6286.425781
17.560000	4074.310303	6289.477539
17.570000	4082.031250	6289.477539
17.580000	4078.002930	6274.218750
17.590000	4079.010010	6307.788086
17.600000	4089.416504	6344.409180
17.610000	4087.402344	6319.995117
17.620000	4097.473145	6368.823242
17.630000	4093.780518	6338.305664
17.640000	4093.780518	6341.357422
17.650000	4100.494385	6310.839844
17.660000	4097.137451	6387.133789
17.670000	4105.194092	6387.133789
17.680000	4110.900879	6426.806641
17.690000	4104.858398	6390.185547
17.700000	4110.229492	6396.289062
17.710000	4115.936279	6408.496094
17.720000	4117.950439	6423.754883
17.730000	4112.579346	6451.220703
17.740000	4120.635986	6442.065430
17.750000	4123.992920	6414.599609
17.760000	4119.964600	6454.272461
17.770000	4127.349854	6432.910156
17.780000	4128.692627	6463.427734
17.790000	4129.364014	6475.634766
17.800000	4137.084961	6466.479492
17.810000	4135.070801	6481.738281
17.820000	4138.427734	6493.945312
17.830000	4142.456055	6490.893555
17.840000	4148.162842	6515.307617
17.850000	4148.498535	6530.566406
17.860000	4147.491455	6530.566406
17.870000	4158.233643	6539.721680
17.880000	4149.505615	6484.790039
17.890000	4154.541016	6561.083984
17.900000	4164.611816	6588.549805
17.910000	4161.254883	6576.342773
17.920000	4163.940430	6567.187500
17.930000	4167.633057	6570.239258
17.940000	4170.318604	6640.429687
17.950000	4177.703857	6637.377930
17.960000	4178.375244	6603.808594
17.970000	4176.361084	6591.601562
17.980000	4180.053711	6622.119141
17.990000	4180.053711	6616.015625
18.000000	4186.431885	6622.119141
18.010000	4194.488525	6649.584961
18.020000	4191.467285	6652.636719
18.030000	4195.495605	6683.154297
18.040000	4196.502686	6670.947266
18.050000	4197.845459	6673.999023
18.060000	4197.845459	6683.154297
18.070000	4201.538086	6731.982422
18.080000	4204.223633	6649.584961
18.090000	4203.552246	6707.568359
18.100000	4213.287354	6722.827148
18.110000	4210.266113	6735.034180
18.120000	4216.644287	6744.189453
18.130000	4217.315674	6738.085937
18.140000	4222.015381	6747.241211
18.150000	4229.400635	6747.241211
18.160000	4225.708008	6771.655273
18.170000	4229.736328	6777.758789
18.180000	4230.407715	6777.758789
18.190000	4230.743408	6756.396484
18.200000	4236.450195	6814.379883
18.210000	4246.520996	6805.224609
18.220000	4244.506836	6820.483398
18.230000	4244.506836	6826.586914
18.240000	4245.849609	6829.638672
18.250000	4249.206543	6860.156250
18.260000	4253.906250	6863.208008
18.270000	4251.556396	6866.259766
18.280000	4249.877930	6796.069336
18.290000	4253.234863	6875.415039
18.300000	4262.634277	6896.777344
18.310000	4263.977051	6881.518555
18.320000	4265.991211	6924.243164
18.330000	4264.984131	6844.897461
18.340000	4267.669678	6945.605469
18.350000	4272.705078	6918.139648
18.360000	4275.390625	7000.537109
18.370000	4274.047852	6896.777344
18.380000	4280.090332	6942.553711
18.390000	4280.090332	6966.967773
18.400000	4289.489746	6988.330078
18.410000	4289.825439	6973.071289
18.420000	4286.804199	7000.537109
18.430000	4295.196533	7009.692383
18.440000	4294.189453	7018.847656
18.450000	4299.224854	7034.106445
18.460000	4298.553467	7024.951172
18.470000	4301.574707	7028.002930
18.480000	4304.595947	7037.158203
18.490000	4307.281494	7089.038086
18.500000	4310.302734	7049.365234
18.510000	4317.016602	7089.038086
18.520000	4320.709229	7073.779297
18.530000	4324.737549	7070.727539
18.540000	4317.016602	7101.245117
18.550000	4327.087402	7107.348633
18.560000	4328.765869	7107.348633
18.570000	4324.737549	7122.607422
18.580000	4337.158203	7140.917969
18.590000	4333.465576	7137.866211
18.600000	4333.129883	7156.176758
18.610000	4336.822510	7186.694336
18.620000	4340.179443	7177.539062
18.630000	4344.879150	7177.539062
18.640000	4344.879150	7180.590820
18.650000	4347.564697	7168.383789
18.660000	4341.522217	7195.849609
18.670000	4351.928711	7205.004883
18.680000	4356.964111	7238.574219
18.690000	4358.306885	7232.470703
18.700000	4361.999512	7214.160156
18.710000	4362.335205	7256.884766
18.720000	4363.677979	7238.574219
18.730000	4366.027832	7281.298828
18.740000	4370.056152	7256.884766
18.750000	4372.741699	7287.402344
18.760000	4374.420166	7299.609375
18.770000	4381.805420	7293.505859
18.780000	4381.134033	7302.661133
18.790000	4378.448486	7327.075195
18.800000	4395.568848	7330.126953
18.810000	4389.526367	7360.644531
18.820000	4396.575928	7345.385742
18.830000	4392.547607	7385.058594
18.840000	4394.226074	7382.006836
18.850000	4403.625488	7397.265625
18.860000	4404.296875	7317.919922
18.870000	4404.296875	7424.731445
18.880000	4404.632568	7397.265625
18.890000	4401.611328	7436.938477
18.900000	4415.039062	7403.369141
18.910000	4412.353516	7446.093750
18.920000	4413.696289	7458.300781
18.930000	4415.374756	7446.093750
18.940000	4421.081543	7473.559570
18.950000	4426.788330	7497.973633
18.960000	4426.788330	7510.180664
18.970000	4426.116943	7501.025391
18.980000	4427.795410	7513.232422
18.990000	4425.109863	7537.646484
19.000000	4439.208984	7552.905273
19.010000	4441.223145	7525.439453
19.020000	4443.237305	7549.853516
19.030000	4443.572998	7540.698242
19.040000	4440.887451	7555.957031
19.050000	4448.272705	7580.371094
19.060000	4453.308105	7613.940430
19.070000	4452.636719	7571.215820
19.080000	4457.336426	7629.199219
19.090000	4459.686279	7620.043945
19.100000	4461.700439	7641.406250
19.110000	4460.357666	7641.406250
19.120000	4466.400146	7656.665039
19.130000	4467.071533	7650.561523
19.140000	4469.421387	7681.079102
19.150000	4475.128174	7665.820312
19.160000	4471.771240	7687.182617
19.170000	4475.463867	7690.234375
19.180000	4476.806641	7702.441406
19.190000	4484.191895	7723.803711
19.200000	4485.198975	7726.855469
19.210000	4488.555908	7763.476562
19.220000	4494.598389	7751.269531
19.230000	4493.927002	7757.373047
19.240000	4492.919922	7784.838867
19.250000	4496.612549	7787.890625
19.260000	4500.305176	7787.890625
19.270000	4505.340576	7821.459961
19.280000	4508.026123	7821.459961
19.290000	4506.683350	7824.511719
19.300000	4510.040283	7833.666992
19.310000	4512.054443	7842.822266
19.320000	4516.082764	7848.925781
19.330000	4517.425537	7870.288086
19.340000	4522.460937	7879.443359
19.350000	4514.739990	7882.495117
19.360000	4529.510498	7903.857422
19.370000	4531.188965	7903.857422
19.380000	4531.524658	7894.702148
19.390000	4534.210205	7928.271484
19.400000	4532.531738	7937.426758
19.410000	4537.902832	7949.633789
19.420000	4541.931152	7961.840820
19.430000	4540.252686	7937.426758
19.440000	4541.595459	7961.840820
19.450000	4550.323486	7998.461914
19.460000	4551.666260	8013.720703
19.470000	4554.016113	7958.789062
19.480000	4556.701660	8035.083008
19.490000	4559.722900	8025.927734
19.500000	4565.093994	8053.393555
19.510000	4559.051514	8059.497070
19.520000	4569.122314	8028.979492
19.530000	4570.129395	8068.652344
19.540000	4570.800781	8074.755859
19.550000	4576.507568	8117.480469
19.560000	4575.500488	8123.583984
19.570000	4581.542969	8135.791016
19.580000	4581.878662	8108.325195
19.590000	4580.200195	8138.842773
19.600000	4586.914062	8144.946289
19.610000	4585.571289	8172.412109
19.620000	4592.285156	8193.774414
19.630000	4592.620850	8184.619141
19.640000	4592.956543	8196.826172
19.650000	4598.327637	8199.877930
19.660000	4601.013184	8233.447266
19.670000	4606.384277	8254.809570
19.680000	4599.670410	8254.809570
19.690000	4609.069824	8245.654297
19.700000	4605.377197	8276.171875
19.710000	4613.433838	8288.378906
19.720000	4615.112305	8285.327148
19.730000	4616.790771	8355.517578
19.740000	4612.426758	8337.207031
19.750000	4626.525879	8343.310547
19.760000	4625.518799	8419.604492
19.770000	4626.525879	8349.414062
19.780000	4628.875732	8349.414062
19.790000	4633.911133	8367.724609
19.800000	4635.253906	8386.035156
19.810000	4636.932373	8370.776367
19.820000	4639.617920	8386.035156
19.830000	4644.653320	8401.293945
19.840000	4648.010254	8447.070312
19.850000	4645.324707	8453.173828
19.860000	4648.681641	8480.639648
19.870000	4650.695801	8425.708008
19.880000	4654.724121	8489.794922
19.890000	4659.759521	8489.794922
19.900000	4666.137695	8566.088867
19.910000	4658.752441	8523.364258
19.920000	4668.487549	8529.467773
19.930000	4668.823242	8544.726562
19.940000	4678.222656	8563.037109
19.950000	4676.879883	8572.192383
19.960000	4674.530029	8584.399414
19.970000	4680.572510	8605.761719
19.980000	4680.908203	8605.761719
19.990000	4678.894043	8617.968750
20.000000	4687.957764	8630.175781
20.010000	4686.950684	8654.589844
20.020000	4687.286377	8608.813477
20.030000	4694.335937	8645.434570
20.040000	4696.014404	8709.521484
20.050000	4691.314697	8700.366211
20.060000	4697.021484	8706.469727
20.070000	4701.721191	8721.728516
20.080000	4706.756592	8712.573242
20.090000	4710.784912	8794.970703
20.100000	4713.134766	8752.246094
20.110000	4715.820312	8773.608398
20.120000	4718.505859	8788.867187
20.130000	4718.841553	8773.608398
20.140000	4717.498779	8773.608398
20.150000	4724.884033	8834.643555
20.160000	4722.534180	8822.436523
20.170000	4733.276367	8880.419922
20.180000	4737.304687	8859.057617
20.190000	4732.940674	8892.626953
20.200000	4736.297607	8889.575195
20.210000	4742.675781	8920.092773
20.220000	4744.018555	8932.299805
20.230000	4742.675781	8935.351562
20.240000	4739.654541	8920.092773
20.250000	4750.061035	8956.713867
20.260000	4749.725342	8956.713867
20.270000	4752.410889	8984.179687
20.280000	4760.803223	9029.956055
20.290000	4758.117676	9008.593750
20.300000	4753.082275	9008.593750
20.310000	4765.167236	9017.749023
20.320000	4766.845703	9036.059570
20.330000	4769.866943	9045.214844
20.340000	4768.859863	9029.956055
20.350000	4771.545410	9075.732422
20.360000	4774.902344	9094.042969
20.370000	4776.245117	9081.835937
20.380000	4779.602051	9139.819336
20.390000	4780.273437	9127.612305
20.400000	4786.315918	9164.233398
20.410000	4788.330078	9167.285156
20.420000	4789.001465	9176.440430
20.430000	4786.987305	9164.233398
20.440000	4793.365479	9219.165039
20.450000	4799.743652	9213.061523
20.460000	4800.415039	9234.423828
20.470000	4797.058105	9234.423828
20.480000	4798.400879	9213.061523
20.490000	4809.143066	9258.837891
20.500000	4803.436279	9295.458984
20.510000	4813.171387	9307.666016
20.520000	4814.514160	9313.769531
20.530000	4819.549561	9350.390625
20.540000	4818.878174	9344.287109
20.550000	4825.592041	9362.597656
20.560000	4828.948975	9374.804687
20.570000	4832.641602	9304.614258
20.580000	4832.305908	9411.425781
20.590000	4835.327148	9411.425781
20.600000	4840.026855	9359.545898
20.610000	4833.312988	9441.943359
20.620000	4842.712402	9487.719727
20.630000	4840.026855	9469.409180
20.640000	4840.698242	9475.512695
20.650000	4847.412109	9512.133789
20.660000	4850.433350	9521.289062
20.670000	4852.447510	9533.496094
20.680000	4852.783203	9521.289062
20.690000	4859.832764	9576.220703
20.700000	4855.468750	9585.375977
20.710000	4863.189697	9609.790039
20.720000	4870.239258	9603.686523
20.730000	4870.910645	9625.048828
20.740000	4876.953125	9637.255859
20.750000	4875.946045	9646.411133
20.760000	4871.917725	9646.411133
20.770000	4876.617432	9676.928711
20.780000	4884.674072	9707.446289
20.790000	4882.324219	9734.912109
20.800000	4884.338379	9737.963867
20.810000	4887.359619	9768.481445
20.820000	4890.380859	9762.377930
20.830000	4893.066406	9707.446289
20.840000	4900.451660	9795.947266
20.850000	4901.794434	9811.206055
20.860000	4896.759033	9823.413086
20.870000	4906.829834	9853.930664
20.880000	4903.137207	9853.930664
20.890000	4907.501221	9878.344727
20.900000	4913.208008	9890.551758
20.910000	4915.222168	9924.121094
20.920000	4917.907715	9939.379883
20.930000	4914.215088	9927.172852
20.940000	4924.621582	10040.087891
20.950000	4928.649902	9982.104492
20.960000	4927.978516	9982.104492
20.970000	4931.335449	10027.880859
20.980000	4933.013916	10027.880859
20.990000	4931.335449	10021.777344
21.000000	4935.699463	10052.294922
21.010000	4936.035156	10073.657227
21.020000	4942.413330	10088.916016
21.030000	4945.434570	10101.123047
21.040000	4949.127197	10113.330078
21.050000	4956.176758	10165.209961
21.060000	4942.077637	10159.106445
21.070000	4953.155518	10162.158203
21.080000	4951.812744	10235.400391
21.090000	4946.777344	10223.193359
21.100000	4965.240479	10241.503906
21.110000	4961.547852	10217.089844
21.120000	4965.240479	10262.866211
21.130000	4967.590332	10265.917969
21.140000	4975.311279	10305.590820
21.150000	4976.654053	10320.849609
21.160000	4970.947266	10330.004883
21.170000	4977.996826	10336.108398
21.180000	4983.703613	10357.470703
21.190000	4975.982666	10357.470703
21.200000	4984.710693	10384.936523
21.210000	4993.774414	10406.298828
21.220000	4993.103027	10470.385742
21.230000	4992.431641	10427.661133
21.240000	4989.410400	10452.075195
21.250000	4996.795654	10467.333984
21.260000	5005.859375	10497.851562
21.270000	5005.859375	10510.058594
21.280000	5007.202148	10503.955078
21.290000	5011.566162	10549.731445
21.300000	5014.251709	10583.300781
21.310000	5013.916016	10561.938477
21.320000	5014.587402	10607.714844
21.330000	5019.622803	10619.921875
21.340000	5028.686523	10677.905273
21.350000	5027.679443	10662.646484
21.360000	5029.693604	10693.164062
21.370000	5030.700684	10702.319336
21.380000	5042.449951	10726.733398
21.390000	5033.721924	10741.992187
21.400000	5037.078857	10763.354492
21.410000	5035.736084	10793.872070
21.420000	5041.107178	10796.923828
21.430000	5044.799805	10793.872070
21.440000	5048.828125	10851.855469
21.450000	5054.870605	10818.286133
21.460000	5046.478271	10857.958984
21.470000	5055.206299	10943.408203
21.480000	5055.206299	10915.942383
21.490000	5059.234619	10934.252930
21.500000	5066.955566	10949.511719
21.510000	5063.262939	10958.666992
21.520000	5066.955566	10989.184570
21.530000	5075.012207	10973.925781
21.540000	5075.683594	11047.167969
21.550000	5074.676514	11068.530273
21.560000	5079.711914	11074.633789
21.570000	5079.040527	11102.099609
21.580000	5083.740234	11153.979492
21.590000	5086.090088	11153.979492
21.600000	5088.104248	11160.083008
21.610000	5087.768555	11178.393555
21.620000	5092.468262	11202.807617
21.630000	5093.139648	11236.376953
21.640000	5090.118408	11224.169922
21.650000	5098.510742	11266.894531
21.660000	5098.510742	11272.998047
21.670000	5101.867676	11306.567383
21.680000	5102.539062	11327.929687
21.690000	5102.539062	11309.619141
21.700000	5110.260010	11352.343750
21.710000	5113.952637	11431.689453
21.720000	5122.680664	11407.275391
21.730000	5114.288330	11385.913086
21.740000	5117.645264	11440.844727
21.750000	5122.680664	11456.103516
21.760000	5124.359131	11492.724609
21.770000	5128.051758	11465.258789
21.780000	5128.051758	11538.500977
21.790000	5133.087158	11541.552734
21.800000	5137.115479	11544.604492
21.810000	5138.793945	11590.380859
21.820000	5138.122559	11608.691406
21.830000	5144.165039	11617.846680
21.840000	5147.857666	11663.623047
21.850000	5151.885986	11672.778320
21.860000	5151.550293	11727.709961
21.870000	5156.921387	11703.295898
21.880000	5161.621094	11773.486328
21.890000	5161.956787	11791.796875
21.900000	5162.292480	11804.003906
21.910000	5161.956787	11846.728516
21.920000	5164.642334	11855.883789
21.930000	5166.992187	11852.832031
21.940000	5172.698975	11846.728516
21.950000	5175.384521	11907.763672
21.960000	5174.377441	11941.333008
21.970000	5176.727295	11962.695312
21.980000	5188.476562	12002.368164
21.990000	5186.462402	12008.471680
22.000000	5187.805176	12032.885742
22.010000	5189.819336	12069.506836
22.020000	5192.840576	12115.283203
22.030000	5199.218750	12145.800781
22.040000	5199.218750	12139.697266
22.050000	5208.953857	12151.904297
22.060000	5199.890137	12191.577148
22.070000	5201.904297	12219.042969
22.080000	5204.589844	12234.301758
22.090000	5204.925537	12261.767578
22.100000	5210.296631	12289.233398
22.110000	5210.296631	12301.440430
22.120000	5217.010498	12347.216797
22.130000	5220.031738	12365.527344
22.140000	5223.388672	12405.200195
22.150000	5221.710205	12411.303711
22.160000	5226.409912	12438.769531
22.170000	5231.781006	12466.235352
22.180000	5230.773926	12472.338867
22.190000	5233.795166	12508.959961
22.200000	5235.137939	12521.166992
22.210000	5239.166260	12557.788086
22.220000	5245.544434	12631.030273
22.230000	5248.901367	12627.978516
22.240000	5235.137939	12637.133789
22.250000	5252.258301	12676.806641
22.260000	5248.901367	12753.100586
22.270000	5251.922607	12722.583008
22.280000	5253.265381	12719.531250
22.290000	5258.636475	12838.549805
22.300000	5253.265381	12789.721680
22.310000	5261.657715	12835.498047
22.320000	5270.050049	12859.912109
22.330000	5271.728516	12905.688477
22.340000	5268.371582	12923.999023
22.350000	5277.770996	12939.257812
22.360000	5275.085449	12960.620117
22.370000	5281.799316	13006.396484
22.380000	5282.470703	13030.810547
22.390000	5285.827637	13049.121094
22.400000	5287.170410	13073.535156
22.410000	5288.177490	13119.311523
22.420000	5290.527344	13122.363281
22.430000	5297.576904	13171.191406
22.440000	5297.912598	13198.657227
22.450000	5294.555664	13223.071289
22.460000	5297.912598	13253.588867
22.470000	5305.633545	13278.002930
22.480000	5303.955078	13320.727539
22.490000	5305.633545	13329.882812
22.500000	5312.347412	13308.520508
22.510000	5315.704346	13403.125000
22.520000	5317.382812	13451.953125
22.530000	5323.425293	13464.160156
22.540000	5328.460693	13494.677734
22.550000	5321.411133	13537.402344
22.560000	5321.746826	13561.816406
22.570000	5324.768066	13580.126953
22.580000	5332.824707	13625.903320
22.590000	5331.817627	13632.006836
22.600000	5333.160400	13696.093750
22.610000	5336.181641	13708.300781
22.620000	5344.238281	13696.093750
22.630000	5341.888428	13784.594727
22.640000	5346.252441	13833.422852
22.650000	5349.945068	13842.578125
22.660000	5348.602295	13891.406250
22.670000	5353.302002	13903.613281
22.680000	5359.344482	13937.182617
22.690000	5354.980469	13986.010742
22.700000	5368.408203	14010.424805
22.710000	5365.386963	14043.994141
22.720000	5365.386963	14056.201172
22.730000	5364.379883	14117.236328
22.740000	5365.051270	14132.495117
22.750000	5375.122070	14181.323242
22.760000	5377.136230	14220.996094
22.770000	5377.807617	14227.099609
22.780000	5385.528564	14285.083008
22.790000	5385.192871	14340.014648
22.800000	5391.571045	14370.532227
22.810000	5387.207031	14382.739258
22.820000	5386.199951	14455.981445
22.830000	5396.942139	14517.016602
22.840000	5395.599365	14507.861328
22.850000	5398.956299	14547.534180
22.860000	5397.277832	14599.414062
22.870000	5399.291992	14593.310547
22.880000	5408.020020	14651.293945
22.890000	5410.034180	14684.863281
22.900000	5414.062500	14727.587891
22.910000	5411.376953	14822.192383
22.920000	5416.076660	14782.519531
22.930000	5422.119141	14837.451172
22.940000	5417.755127	14861.865234
22.950000	5425.140381	14919.848633
22.960000	5415.069580	14947.314453
22.970000	5425.140381	14980.883789
22.980000	5435.546875	15048.022461
22.990000	5432.861328	15044.970703
