LabVIEW Measurement	
Writer_Version	2
Reader_Version	2
Separator	Tab
Decimal_Separator	.
Multi_Headings	No
X_Columns	One
Time_Pref	Absolute
Operator	machine07
Date	2018/11/19
Time	09:07:52.2131250998842608932
***End_of_Header***	
	
Channels	2		
Samples	100	100	
Date	2018/11/19	2018/11/19	
Time	11:49:24.2131250998844626485	11:49:24.2131400995330187617	
Y_Unit_Label	Lbf	Volts	
X_Dimension	Time	Time	
X0	0.0000000000000000E+0	0.0000000000000000E+0	
Delta_X	0.010000	0.010000	
***End_of_Header***			
X_Value	Load-lbf	Strain-usn	Comment
0.000000	22.827148	-22.602539
0.010000	27.191162	-22.602539
0.020000	20.477295	7.915039
0.030000	23.162842	7.915039
0.040000	24.841309	1.811523
0.050000	22.827148	-19.550781
0.060000	22.827148	14.018555
0.070000	21.148682	-19.550781
0.080000	24.505615	-40.913086
0.090000	20.812988	7.915039
0.100000	20.477295	14.018555
0.110000	24.169922	-22.602539
0.120000	21.820068	-16.499023
0.130000	22.827148	-13.447266
0.140000	22.827148	-47.016602
0.150000	19.805908	-31.757812
0.160000	22.491455	-7.343750
0.170000	22.827148	14.018555
0.180000	19.134521	-34.809570
0.190000	28.198242	-25.654297
0.200000	21.148682	-19.550781
0.210000	22.491455	-101.948242
0.220000	21.820068	-34.809570
0.230000	23.834229	-13.447266
0.240000	26.855469	-4.291992
0.250000	21.148682	1.811523
0.260000	23.834229	-19.550781
0.270000	22.491455	-40.913086
0.280000	22.155762	-7.343750
0.290000	17.791748	14.018555
0.300000	22.491455	-13.447266
0.310000	22.827148	-7.343750
0.320000	15.106201	-10.395508
0.330000	21.484375	-13.447266
0.340000	22.155762	-10.395508
0.350000	22.827148	-16.499023
0.360000	22.491455	-34.809570
0.370000	21.148682	-47.016602
0.380000	21.148682	-37.861328
0.390000	22.155762	-1.240234
0.400000	19.805908	-22.602539
0.410000	25.512695	-19.550781
0.420000	21.484375	-16.499023
0.430000	23.162842	-25.654297
0.440000	22.827148	-10.395508
0.450000	25.177002	-16.499023
0.460000	24.505615	-25.654297
0.470000	21.820068	-19.550781
0.480000	23.498535	-13.447266
0.490000	23.498535	-10.395508
0.500000	22.155762	-4.291992
0.510000	23.498535	-19.550781
0.520000	17.456055	-53.120117
0.530000	21.484375	-13.447266
0.540000	24.169922	10.966797
0.550000	19.134521	-13.447266
0.560000	20.812988	-25.654297
0.570000	22.827148	-13.447266
0.580000	25.848389	-7.343750
0.590000	24.169922	-16.499023
0.600000	21.484375	-10.395508
0.610000	24.169922	-13.447266
0.620000	22.155762	-7.343750
0.630000	19.470215	-34.809570
0.640000	24.169922	14.018555
0.650000	24.841309	-28.706055
0.660000	22.155762	-10.395508
0.670000	26.519775	14.018555
0.680000	22.827148	-16.499023
0.690000	22.155762	-19.550781
0.700000	22.155762	-1.240234
0.710000	24.841309	14.018555
0.720000	22.155762	1.811523
0.730000	22.827148	-10.395508
0.740000	22.491455	-126.362305
0.750000	21.148682	-7.343750
0.760000	23.162842	-4.291992
0.770000	23.498535	-13.447266
0.780000	25.177002	-7.343750
0.790000	23.498535	-28.706055
0.800000	19.805908	-10.395508
0.810000	22.155762	-62.275391
0.820000	25.848389	1.811523
0.830000	20.812988	-34.809570
0.840000	23.498535	-22.602539
0.850000	26.184082	-16.499023
0.860000	24.841309	10.966797
0.870000	18.463135	-19.550781
0.880000	22.155762	-89.741211
0.890000	22.155762	-19.550781
0.900000	25.848389	53.691406
0.910000	23.498535	-7.343750
0.920000	24.505615	-13.447266
0.930000	24.841309	-77.534180
0.940000	25.848389	-10.395508
0.950000	22.155762	-37.861328
0.960000	25.512695	-13.447266
0.970000	22.827148	-34.809570
0.980000	23.162842	-7.343750
0.990000	22.827148	-10.395508
1.000000	21.148682	-25.654297
1.010000	24.841309	-7.343750
1.020000	22.491455	-50.068359
1.030000	26.184082	-16.499023
1.040000	21.820068	-22.602539
1.050000	19.134521	-34.809570
1.060000	23.498535	-7.343750
1.070000	20.812988	-47.016602
1.080000	22.827148	-40.913086
1.090000	22.827148	-22.602539
1.100000	20.141602	1.811523
1.110000	24.505615	-10.395508
1.120000	22.827148	4.863281
1.130000	22.491455	-4.291992
1.140000	23.834229	-4.291992
1.150000	22.155762	-13.447266
1.160000	14.770508	-7.343750
1.170000	25.848389	-4.291992
1.180000	26.855469	-47.016602
1.190000	21.484375	-7.343750
1.200000	21.820068	-10.395508
1.210000	24.841309	-16.499023
1.220000	23.834229	-4.291992
1.230000	22.491455	-10.395508
1.240000	26.519775	10.966797
1.250000	22.827148	-19.550781
1.260000	23.498535	-68.378906
1.270000	22.827148	-37.861328
1.280000	21.820068	4.863281
1.290000	18.127441	-22.602539
1.300000	22.155762	-22.602539
1.310000	23.498535	-16.499023
1.320000	20.477295	-13.447266
1.330000	17.791748	-50.068359
1.340000	21.148682	-13.447266
1.350000	24.169922	-19.550781
1.360000	22.827148	-10.395508
1.370000	21.148682	-71.430664
1.380000	24.841309	26.225586
1.390000	22.155762	-37.861328
1.400000	19.470215	-19.550781
1.410000	23.498535	-25.654297
1.420000	23.498535	-13.447266
1.430000	24.169922	1.811523
1.440000	21.820068	-86.689453
1.450000	10.070801	-47.016602
1.460000	23.498535	-13.447266
1.470000	18.798828	-10.395508
1.480000	21.820068	-19.550781
1.490000	23.498535	-16.499023
1.500000	17.456055	-22.602539
1.510000	22.155762	-22.602539
1.520000	24.169922	1.811523
1.530000	22.491455	-50.068359
1.540000	16.784668	-22.602539
1.550000	22.491455	-19.550781
1.560000	26.519775	-22.602539
1.570000	23.498535	-16.499023
1.580000	22.827148	-4.291992
1.590000	23.834229	10.966797
1.600000	24.841309	-16.499023
1.610000	23.498535	14.018555
1.620000	21.820068	-13.447266
1.630000	23.498535	-13.447266
1.640000	28.869629	-22.602539
1.650000	20.812988	-16.499023
1.660000	20.477295	-13.447266
1.670000	16.448975	4.863281
1.680000	23.498535	-25.654297
1.690000	23.834229	-25.654297
1.700000	20.812988	-19.550781
1.710000	26.519775	-13.447266
1.720000	21.484375	-16.499023
1.730000	22.491455	1.811523
1.740000	25.512695	-43.964844
1.750000	23.834229	-16.499023
1.760000	22.155762	-19.550781
1.770000	21.820068	-4.291992
1.780000	29.205322	-13.447266
1.790000	23.162842	-19.550781
1.800000	20.477295	-22.602539
1.810000	24.169922	-16.499023
1.820000	18.798828	-40.913086
1.830000	27.862549	35.380859
1.840000	24.169922	-22.602539
1.850000	19.470215	-25.654297
1.860000	23.162842	-13.447266
1.870000	10.742187	-31.757812
1.880000	22.155762	-4.291992
1.890000	24.169922	-7.343750
1.900000	23.834229	-16.499023
1.910000	20.141602	-10.395508
1.920000	21.820068	-22.602539
1.930000	24.169922	50.639648
1.940000	22.491455	-16.499023
1.950000	21.148682	7.915039
1.960000	16.113281	-10.395508
1.970000	22.491455	-4.291992
1.980000	19.805908	-10.395508
1.990000	27.191162	1.811523
2.000000	18.798828	-4.291992
2.010000	24.841309	-19.550781
2.020000	24.505615	-1.240234
2.030000	22.155762	-4.291992
2.040000	24.841309	-37.861328
2.050000	22.491455	-22.602539
2.060000	24.841309	-34.809570
2.070000	21.148682	-16.499023
2.080000	24.169922	14.018555
2.090000	22.155762	-10.395508
2.100000	21.820068	-19.550781
2.110000	24.169922	-28.706055
2.120000	25.177002	-13.447266
2.130000	25.177002	-50.068359
2.140000	22.491455	-13.447266
2.150000	22.155762	-25.654297
2.160000	22.155762	-43.964844
2.170000	19.470215	-13.447266
2.180000	24.169922	-13.447266
2.190000	21.148682	-34.809570
2.200000	24.169922	-4.291992
2.210000	25.177002	-16.499023
2.220000	21.148682	-16.499023
2.230000	16.784668	-7.343750
2.240000	23.834229	-10.395508
2.250000	22.155762	-13.447266
2.260000	27.191162	-1.240234
2.270000	25.177002	-4.291992
2.280000	20.477295	-7.343750
2.290000	25.177002	-4.291992
2.300000	22.491455	-7.343750
2.310000	24.505615	-25.654297
2.320000	22.827148	-19.550781
2.330000	23.834229	-19.550781
2.340000	23.834229	-4.291992
2.350000	21.484375	-1.240234
2.360000	24.505615	-22.602539
2.370000	20.141602	-4.291992
2.380000	26.184082	26.225586
2.390000	17.791748	-22.602539
2.400000	19.805908	-31.757812
2.410000	21.820068	-80.585937
2.420000	19.805908	-19.550781
2.430000	23.498535	-10.395508
2.440000	21.148682	-95.844727
2.450000	15.777588	-28.706055
2.460000	23.162842	-19.550781
2.470000	23.498535	-28.706055
2.480000	21.820068	-10.395508
2.490000	23.834229	-34.809570
2.500000	19.470215	-31.757812
2.510000	21.820068	-10.395508
2.520000	20.477295	-19.550781
2.530000	23.162842	-16.499023
2.540000	13.427734	-19.550781
2.550000	21.148682	-25.654297
2.560000	24.505615	1.811523
2.570000	21.484375	-47.016602
2.580000	17.791748	-53.120117
2.590000	24.169922	1.811523
2.600000	21.820068	-7.343750
2.610000	16.784668	-10.395508
2.620000	21.484375	-13.447266
2.630000	27.526855	-37.861328
2.640000	22.827148	-7.343750
2.650000	21.484375	-111.103516
2.660000	23.834229	-22.602539
2.670000	22.491455	-22.602539
2.680000	23.834229	-4.291992
2.690000	24.169922	-28.706055
2.700000	16.448975	-40.913086
2.710000	23.498535	-25.654297
2.720000	24.169922	-4.291992
2.730000	22.155762	-13.447266
2.740000	23.498535	-25.654297
2.750000	21.148682	7.915039
2.760000	21.820068	-13.447266
2.770000	19.805908	-40.913086
2.780000	18.127441	-13.447266
2.790000	23.834229	-34.809570
2.800000	21.148682	-16.499023
2.810000	24.505615	-4.291992
2.820000	22.491455	-56.171875
2.830000	9.063721	-56.171875
2.840000	22.155762	-10.395508
2.850000	19.134521	-22.602539
2.860000	24.169922	-19.550781
2.870000	22.155762	-31.757812
2.880000	22.155762	-47.016602
2.890000	26.519775	-25.654297
2.900000	17.456055	-16.499023
2.910000	23.162842	-13.447266
2.920000	21.148682	-25.654297
2.930000	21.484375	7.915039
2.940000	23.834229	-28.706055
2.950000	23.162842	-16.499023
2.960000	21.148682	-16.499023
2.970000	12.756348	-19.550781
2.980000	27.191162	1.811523
2.990000	24.841309	14.018555
3.000000	23.162842	-13.447266
3.010000	24.841309	-1.240234
3.020000	25.177002	-19.550781
3.030000	23.834229	-28.706055
3.040000	20.141602	-40.913086
3.050000	21.148682	-34.809570
3.060000	24.169922	-7.343750
3.070000	23.162842	-28.706055
3.080000	23.162842	-13.447266
3.090000	25.177002	-1.240234
3.100000	15.106201	-13.447266
3.110000	23.162842	-40.913086
3.120000	22.827148	-4.291992
3.130000	22.491455	-4.291992
3.140000	24.505615	-19.550781
3.150000	22.491455	-7.343750
3.160000	24.505615	-4.291992
3.170000	25.177002	-19.550781
3.180000	21.484375	-16.499023
3.190000	20.477295	-43.964844
3.200000	21.148682	-40.913086
3.210000	23.498535	-25.654297
3.220000	22.491455	-16.499023
3.230000	20.477295	-7.343750
3.240000	23.498535	1.811523
3.250000	22.155762	-25.654297
3.260000	23.498535	-16.499023
3.270000	22.155762	-28.706055
3.280000	21.148682	-10.395508
3.290000	21.820068	-10.395508
3.300000	19.805908	-16.499023
3.310000	22.491455	-25.654297
3.320000	21.484375	-13.447266
3.330000	22.155762	-19.550781
3.340000	21.484375	-19.550781
3.350000	22.827148	20.122070
3.360000	25.177002	-10.395508
3.370000	22.491455	-7.343750
3.380000	22.827148	-10.395508
3.390000	27.191162	-50.068359
3.400000	21.148682	-13.447266
3.410000	23.498535	-22.602539
3.420000	21.484375	-65.327148
3.430000	22.491455	-1.240234
3.440000	22.491455	-13.447266
3.450000	21.484375	-7.343750
3.460000	23.162842	-10.395508
3.470000	22.155762	-16.499023
3.480000	21.820068	4.863281
3.490000	23.498535	-13.447266
3.500000	22.491455	4.863281
3.510000	26.855469	14.018555
3.520000	28.198242	14.018555
3.530000	29.876709	14.018555
3.540000	30.548096	29.277344
3.550000	33.569336	14.018555
3.560000	36.254883	26.225586
3.570000	34.240723	56.743164
3.580000	34.912109	50.639648
3.590000	38.269043	75.053711
3.600000	39.947510	90.312500
3.610000	43.975830	72.001953
3.620000	40.618896	93.364258
3.630000	45.654297	62.846680
3.640000	53.375244	111.674805
3.650000	51.361084	151.347656
3.660000	65.460205	151.347656
3.670000	69.152832	172.709961
3.680000	81.573486	123.881836
3.690000	81.573486	157.451172
3.700000	85.266113	184.916992
3.710000	91.644287	206.279297
3.720000	92.987061	233.745117
3.730000	93.322754	218.486328
3.740000	95.672607	236.796875
3.750000	89.294434	209.331055
3.760000	104.064941	209.331055
3.770000	102.722168	215.434570
3.780000	104.736328	236.796875
3.790000	105.743408	227.641602
3.800000	109.100342	212.382812
3.810000	111.785889	249.003906
3.820000	114.807129	258.159180
3.830000	116.485596	252.055664
3.840000	118.499756	249.003906
3.850000	118.835449	270.366211
3.860000	129.913330	261.210937
3.870000	124.206543	291.728516
3.880000	130.584717	316.142578
3.890000	133.270264	258.159180
3.900000	131.256104	270.366211
3.910000	128.906250	270.366211
3.920000	136.962891	288.676758
3.930000	139.312744	276.469727
3.940000	142.333984	297.832031
3.950000	145.019531	300.883789
3.960000	146.362305	316.142578
3.970000	153.411865	319.194336
3.980000	153.076172	297.832031
3.990000	154.418945	316.142578
4.000000	160.461426	319.194336
4.010000	164.489746	233.745117
4.020000	160.125732	334.453125
4.030000	166.168213	328.349609
4.040000	172.882080	352.763672
4.050000	173.889160	404.643555
4.060000	175.231934	371.074219
4.070000	174.560547	361.918945
4.080000	175.567627	355.815430
4.090000	179.260254	374.125977
4.100000	181.610107	282.573242
4.110000	187.988281	337.504883
4.120000	187.316895	368.022461
4.130000	192.687988	395.488281
4.140000	195.709229	368.022461
4.150000	197.052002	383.281250
4.160000	203.430176	368.022461
4.170000	196.044922	395.488281
4.180000	204.772949	398.540039
4.190000	208.129883	410.747070
4.200000	208.465576	392.436523
4.210000	210.815430	404.643555
4.220000	209.136963	410.747070
4.230000	215.515137	337.504883
4.240000	219.879150	413.798828
4.250000	219.207764	386.333008
4.260000	227.935791	410.747070
4.270000	229.278564	477.885742
4.280000	227.935791	419.902344
4.290000	229.278564	432.109375
4.300000	227.935791	419.902344
4.310000	234.313965	435.161133
4.320000	244.720459	422.954102
4.330000	242.706299	444.316406
4.340000	242.370605	441.264648
4.350000	242.370605	429.057617
4.360000	250.427246	444.316406
4.370000	250.427246	441.264648
4.380000	253.112793	499.248047
4.390000	251.770020	453.471680
4.400000	257.812500	462.626953
4.410000	261.505127	444.316406
4.420000	268.890381	529.765625
4.430000	265.533447	441.264648
4.440000	263.183594	426.005859
4.450000	265.869141	465.678711
4.460000	273.590088	496.196289
4.470000	276.947021	480.937500
4.480000	275.268555	502.299805
4.490000	281.646729	477.885742
4.500000	281.982422	493.144531
4.510000	288.024902	480.937500
4.520000	290.374756	511.455078
4.530000	288.696289	474.833984
4.540000	295.410156	529.765625
4.550000	295.074463	511.455078
4.560000	301.452637	551.127930
4.570000	301.452637	490.092773
4.580000	301.788330	526.713867
4.590000	306.488037	526.713867
4.600000	308.502197	529.765625
4.610000	310.852051	520.610352
4.620000	311.187744	529.765625
4.630000	315.551758	538.920898
4.640000	304.138184	508.403320
4.650000	317.901611	545.024414
4.660000	324.279785	572.490234
4.670000	327.972412	554.179687
4.680000	328.643799	584.697266
4.690000	331.329346	557.231445
4.700000	333.679199	551.127930
4.710000	339.385986	557.231445
4.720000	334.014893	572.490234
4.730000	342.071533	566.386719
4.740000	342.742920	560.283203
4.750000	339.050293	560.283203
4.760000	349.121094	578.593750
4.770000	348.785400	590.800781
4.780000	354.492187	581.645508
4.790000	358.184814	609.111328
4.800000	354.156494	596.904297
4.810000	359.527588	599.956055
4.820000	370.941162	606.059570
4.830000	364.898682	593.852539
4.840000	366.577148	593.852539
4.850000	369.262695	575.541992
4.860000	371.612549	606.059570
4.870000	375.640869	612.163086
4.880000	377.319336	612.163086
4.890000	380.340576	621.318359
4.900000	380.004883	609.111328
4.910000	387.390137	630.473633
4.920000	387.054443	621.318359
4.930000	390.411377	636.577148
4.940000	391.418457	621.318359
4.950000	394.104004	636.577148
4.960000	405.181885	639.628906
4.970000	401.153564	639.628906
4.980000	402.496338	664.042969
4.990000	405.181885	670.146484
5.000000	408.874512	636.577148
5.010000	410.217285	667.094727
5.020000	413.238525	691.508789
5.030000	411.895752	654.887695
5.040000	413.574219	670.146484
5.050000	417.602539	651.835937
5.060000	422.973633	664.042969
5.070000	422.637939	670.146484
5.080000	424.987793	673.198242
5.090000	428.344727	660.991211
5.100000	425.659180	688.457031
5.110000	438.415527	694.560547
5.120000	434.387207	734.233398
5.130000	434.387207	691.508789
5.140000	443.115234	755.595703
5.150000	440.429687	679.301758
5.160000	446.472168	679.301758
5.170000	454.528809	703.715820
5.180000	453.857422	731.181641
5.190000	453.186035	709.819336
5.200000	453.186035	761.699219
5.210000	459.899902	691.508789
5.220000	462.249756	783.061523
5.230000	462.585449	728.129883
5.240000	464.935303	697.612305
5.250000	469.635010	737.285156
5.260000	471.984863	737.285156
5.270000	475.341797	734.233398
5.280000	469.299316	746.440430
5.290000	484.069824	749.492187
5.300000	487.426758	776.958008
5.310000	485.076904	731.181641
5.320000	486.755371	767.802734
5.330000	490.447998	752.543945
5.340000	486.419678	660.991211
5.350000	492.797852	780.009766
5.360000	501.525879	703.715820
5.370000	499.847412	783.061523
5.380000	505.218506	764.750977
5.390000	503.875732	770.854492
5.400000	505.889893	773.906250
5.410000	512.603760	831.889648
5.420000	513.275146	786.113281
5.430000	516.632080	770.854492
5.440000	511.932373	718.974609
5.450000	515.960693	841.044922
5.460000	520.660400	789.165039
5.470000	529.724121	831.889648
5.480000	526.031494	822.734375
5.490000	525.360107	776.958008
5.500000	527.709961	734.233398
5.510000	532.073975	831.889648
5.520000	531.738281	798.320312
5.530000	538.787842	807.475586
5.540000	541.473389	798.320312
5.550000	543.487549	831.889648
5.560000	546.844482	801.372070
5.570000	548.858643	837.993164
5.580000	553.558350	831.889648
5.590000	553.558350	828.837891
5.600000	549.194336	825.786133
5.610000	557.250977	837.993164
5.620000	561.950684	816.630859
5.630000	567.321777	850.200195
5.640000	566.986084	850.200195
5.650000	568.664551	850.200195
5.660000	574.707031	856.303711
5.670000	573.364258	880.717773
5.680000	575.714111	895.976562
5.690000	574.035645	834.941406
5.700000	579.406738	877.666016
5.710000	581.756592	886.821289
5.720000	582.092285	905.131836
5.730000	588.806152	877.666016
5.740000	590.484619	868.510742
5.750000	587.127686	874.614258
5.760000	596.862793	899.028320
5.770000	598.541260	886.821289
5.780000	601.898193	871.562500
5.790000	605.590820	831.889648
5.800000	607.940674	905.131836
5.810000	601.898193	902.080078
5.820000	613.983154	908.183594
5.830000	611.968994	911.235352
5.840000	618.347168	960.063477
5.850000	619.018555	923.442383
5.860000	621.368408	920.390625
5.870000	626.739502	929.545898
5.880000	635.803223	920.390625
5.890000	634.460449	929.545898
5.900000	636.810303	950.908203
5.910000	638.488770	929.545898
5.920000	636.138916	947.856445
5.930000	641.510010	923.442383
5.940000	641.510010	941.752930
5.950000	641.845703	917.338867
5.960000	647.216797	975.322266
5.970000	651.245117	950.908203
5.980000	655.273437	981.425781
5.990000	655.944824	944.804687
6.000000	656.951904	935.649414
6.010000	659.637451	950.908203
6.020000	665.679932	972.270508
6.030000	666.351318	953.959961
6.040000	669.708252	969.218750
6.050000	667.694092	984.477539
6.060000	670.715332	969.218750
6.070000	668.029785	978.374023
6.080000	680.786133	978.374023
6.090000	674.743652	990.581055
6.100000	681.457520	1005.839844
6.110000	683.471680	1005.839844
6.120000	689.514160	987.529297
6.130000	690.521240	1002.788086
6.140000	691.192627	996.684570
6.150000	698.913574	1024.150391
6.160000	695.220947	1008.891602
6.170000	697.570801	1024.150391
6.180000	700.256348	1033.305664
6.190000	704.956055	996.684570
6.200000	709.655762	993.632812
6.210000	709.320068	1051.616211
6.220000	713.012695	999.736328
6.230000	715.362549	1042.460937
6.240000	716.033936	1033.305664
6.250000	717.376709	1005.839844
6.260000	721.740723	1042.460937
6.270000	726.104736	1054.667969
6.280000	729.461670	1076.030273
6.290000	732.147217	1054.667969
6.300000	727.783203	1048.564453
6.310000	734.497070	1072.978516
6.320000	735.168457	987.529297
6.330000	740.203857	1069.926758
6.340000	747.924805	1082.133789
6.350000	746.246338	1060.771484
6.360000	743.225098	1076.030273
6.370000	746.246338	1066.875000
6.380000	751.953125	1045.512695
6.390000	756.652832	1088.237305
6.400000	755.310059	1109.599609
6.410000	761.016846	1069.926758
6.420000	763.366699	1103.496094
6.430000	763.366699	1082.133789
6.440000	765.716553	1106.547852
6.450000	767.059326	1155.375977
6.460000	774.444580	1130.961914
6.470000	775.787354	1161.479492
6.480000	785.522461	1100.444336
6.490000	779.479980	1094.340820
6.500000	778.472900	1100.444336
6.510000	784.179687	1115.703125
6.520000	786.865234	1143.168945
6.530000	794.586182	1134.013672
6.540000	790.557861	1170.634766
6.550000	796.264648	1149.272461
6.560000	799.285889	1134.013672
6.570000	804.992676	1124.858398
6.580000	801.635742	1188.945312
6.590000	797.607422	1130.961914
6.600000	801.635742	1127.910156
6.610000	811.706543	1134.013672
6.620000	810.699463	1158.427734
6.630000	811.706543	1155.375977
6.640000	818.420410	1188.945312
6.650000	812.713623	1137.065430
6.660000	825.469971	1164.531250
6.670000	824.462891	1170.634766
6.680000	829.498291	1173.686523
6.690000	826.477051	1155.375977
6.700000	828.491211	1164.531250
6.710000	834.197998	1179.790039
6.720000	834.869385	1182.841797
6.730000	840.240479	1207.255859
6.740000	838.897705	1164.531250
6.750000	841.247559	1137.065430
6.760000	851.654053	1188.945312
6.770000	851.654053	1191.997070
6.780000	854.003906	1170.634766
6.790000	856.018066	1216.411133
6.800000	855.682373	1198.100586
6.810000	862.060547	1210.307617
6.820000	864.074707	1216.411133
6.830000	861.724854	1222.514648
6.840000	866.424561	1210.307617
6.850000	865.417480	1219.462891
6.860000	867.431641	1213.359375
6.870000	874.145508	1246.928711
6.880000	872.802734	1246.928711
6.890000	876.495361	1219.462891
6.900000	881.195068	1237.773437
6.910000	889.251709	1262.187500
6.920000	888.580322	1237.773437
6.930000	891.265869	1292.705078
6.940000	895.294189	1231.669922
6.950000	891.601562	1265.239258
6.960000	895.629883	1243.876953
6.970000	899.993896	1231.669922
6.980000	900.665283	1256.083984
6.990000	899.658203	1280.498047
7.000000	913.085937	1271.342773
7.010000	915.100098	1259.135742
7.020000	908.050537	1265.239258
7.030000	915.771484	1280.498047
7.040000	916.778564	1268.291016
7.050000	918.792725	1304.912109
7.060000	925.170898	1292.705078
7.070000	924.499512	1280.498047
7.080000	928.863525	1274.394531
7.090000	931.213379	1295.756836
7.100000	931.213379	1326.274414
7.110000	935.241699	1301.860352
7.120000	931.549072	1304.912109
7.130000	940.277100	1292.705078
7.140000	938.598633	1311.015625
7.150000	945.983887	1326.274414
7.160000	945.983887	1301.860352
7.170000	949.676514	1320.170898
7.180000	949.005127	1332.377930
7.190000	952.697754	1307.963867
7.200000	955.047607	1329.326172
7.210000	960.418701	1326.274414
7.220000	964.111328	1335.429687
7.230000	971.160889	1375.102539
7.240000	968.475342	1353.740234
7.250000	968.811035	1347.636719
7.260000	975.189209	1335.429687
7.270000	975.860596	1350.688477
7.280000	977.874756	1344.584961
7.290000	978.546143	1341.533203
7.300000	967.468262	1332.377930
7.310000	986.602783	1350.688477
7.320000	983.917236	1350.688477
7.330000	982.910156	1359.843750
7.340000	989.959717	1372.050781
7.350000	992.980957	1274.394531
7.360000	992.645264	1368.999023
7.370000	1000.030518	1393.413086
7.380000	1006.408691	1378.154297
7.390000	1002.716064	1393.413086
7.400000	1005.401611	1372.050781
7.410000	1009.765625	1393.413086
7.420000	1008.087158	1387.309570
7.430000	1012.115479	1341.533203
7.440000	1017.150879	1390.361328
7.450000	1015.808105	1365.947266
7.460000	1021.514893	1387.309570
7.470000	1020.172119	1408.671875
7.480000	1031.250000	1399.516602
7.490000	1036.956787	1433.085937
7.500000	1024.200439	1408.671875
7.510000	1033.599854	1390.361328
7.520000	1037.628174	1411.723633
7.530000	1041.320801	1384.257812
7.540000	1039.306641	1399.516602
7.550000	1043.670654	1463.603516
7.560000	1042.663574	1433.085937
7.570000	1049.713135	1433.085937
7.580000	1051.391602	1347.636719
7.590000	1055.755615	1454.448242
7.600000	1063.140869	1442.241211
7.610000	1066.162109	1445.292969
7.620000	1063.140869	1457.500000
7.630000	1064.819336	1460.551758
7.640000	1067.504883	1460.551758
7.650000	1067.169189	1451.396484
7.660000	1076.568604	1460.551758
7.670000	1070.526123	1448.344727
7.680000	1073.547363	1500.224609
7.690000	1080.932617	1481.914062
7.700000	1077.575684	1411.723633
7.710000	1087.310791	1475.810547
7.720000	1087.310791	1481.914062
7.730000	1091.339111	1466.655273
7.740000	1093.353271	1488.017578
7.750000	1095.031738	1460.551758
7.760000	1101.409912	1524.638672
7.770000	1097.045898	1491.069336
7.780000	1101.745605	1484.965820
7.790000	1108.459473	1497.172852
7.800000	1107.788086	1536.845703
7.810000	1112.823486	1494.121094
7.820000	1110.809326	1515.483398
7.830000	1115.173340	1521.586914
7.840000	1116.851807	1530.742187
7.850000	1119.873047	1527.690430
7.860000	1120.880127	1518.535156
7.870000	1123.901367	1506.328125
7.880000	1126.586914	1552.104492
7.890000	1127.593994	1506.328125
7.900000	1133.300781	1576.518555
7.910000	1134.979248	1558.208008
7.920000	1132.965088	1539.897461
7.930000	1138.671875	1542.949219
7.940000	1141.693115	1552.104492
7.950000	1144.042969	1558.208008
7.960000	1149.749756	1503.276367
7.970000	1155.120850	1561.259766
7.980000	1150.085449	1558.208008
7.990000	1154.449463	1564.311523
8.000000	1143.371582	1567.363281
8.010000	1159.820557	1570.415039
8.020000	1161.499023	1576.518555
8.030000	1166.870117	1582.622070
8.040000	1166.198730	1570.415039
8.050000	1170.898437	1579.570312
8.060000	1170.898437	1585.673828
8.070000	1169.555664	1591.777344
8.080000	1175.262451	1610.087891
8.090000	1176.940918	1600.932617
8.100000	1176.940918	1600.932617
8.110000	1181.640625	1665.019531
8.120000	1173.919678	1610.087891
8.130000	1196.411133	1637.553711
8.140000	1194.396973	1607.036133
8.150000	1192.718506	1610.087891
8.160000	1198.089600	1603.984375
8.170000	1198.760986	1619.243164
8.180000	1196.075439	1622.294922
8.190000	1199.432373	1640.605469
8.200000	1204.803467	1628.398437
8.210000	1212.524414	1680.278320
8.220000	1218.566895	1643.657227
8.230000	1215.209961	1631.450195
8.240000	1223.937988	1677.226562
8.250000	1226.959229	1677.226562
8.260000	1221.252441	1585.673828
8.270000	1228.637695	1665.019531
8.280000	1230.987549	1689.433594
8.290000	1234.680176	1677.226562
8.300000	1231.323242	1716.899414
8.310000	1234.680176	1686.381836
8.320000	1233.673096	1674.174805
8.330000	1236.022949	1677.226562
8.340000	1246.765137	1750.468750
8.350000	1248.779297	1713.847656
8.360000	1248.779297	1713.847656
8.370000	1244.750977	1726.054687
8.380000	1254.486084	1716.899414
8.390000	1252.807617	1716.899414
8.400000	1257.171631	1738.261719
8.410000	1262.207031	1689.433594
8.420000	1261.871338	1732.158203
8.430000	1260.528564	1729.106445
8.440000	1269.592285	1741.313477
8.450000	1265.563965	1729.106445
8.460000	1268.920898	1753.520508
8.470000	1274.963379	1756.572266
8.480000	1277.313232	1756.572266
8.490000	1276.306152	1756.572266
8.500000	1282.012939	1780.986328
8.510000	1291.076660	1762.675781
8.520000	1287.048340	1768.779297
8.530000	1286.376953	1747.416992
8.540000	1295.776367	1780.986328
8.550000	1295.440674	1777.934570
8.560000	1299.804687	1811.503906
8.570000	1300.476074	1835.917969
8.580000	1301.147461	1793.193359
8.590000	1304.168701	1790.141602
8.600000	1309.875488	1744.365234
8.610000	1312.561035	1787.089844
8.620000	1312.561035	1790.141602
8.630000	1313.232422	1817.607422
8.640000	1321.624756	1796.245117
8.650000	1318.939209	1805.400391
8.660000	1321.624756	1817.607422
8.670000	1326.324463	1790.141602
8.680000	1328.002930	1805.400391
8.690000	1326.995850	1780.986328
8.700000	1330.017090	1790.141602
8.710000	1339.752197	1814.555664
8.720000	1341.430664	1805.400391
8.730000	1338.073730	1817.607422
8.740000	1341.766357	1802.348633
8.750000	1339.416504	1811.503906
8.760000	1347.473145	1802.348633
8.770000	1342.773437	1799.296875
8.780000	1349.487305	1793.193359
8.790000	1357.879639	1826.762695
8.800000	1355.194092	1820.659180
8.810000	1359.222412	1811.503906
8.820000	1356.201172	1802.348633
8.830000	1362.579346	1787.089844
8.840000	1366.607666	1799.296875
8.850000	1365.600586	1814.555664
8.860000	1370.635986	1765.727539
8.870000	1371.643066	1799.296875
8.880000	1370.971680	1762.675781
8.890000	1373.321533	1765.727539
8.900000	1379.699707	1848.125000
8.910000	1376.007080	1787.089844
8.920000	1371.978760	1777.934570
8.930000	1381.042480	1823.710937
8.940000	1381.378174	1842.021484
8.950000	1378.356934	1875.590820
8.960000	1387.084961	1884.746094
8.970000	1390.777588	1927.470703
8.980000	1396.148682	1936.625977
8.990000	1399.505615	1976.298828
9.000000	1399.505615	2003.764648
9.010000	1403.533936	2028.178711
9.020000	1409.576416	2070.903320
9.030000	1409.240723	2110.576172
9.040000	1411.590576	2177.714844
9.050000	1416.625977	2196.025391
9.060000	1415.283203	2244.853516
9.070000	1418.975830	2315.043945
9.080000	1410.919189	2461.528320
9.090000	1420.654297	2595.805664
9.100000	1414.276123	2794.169922
9.110000	1421.661377	2980.327148
9.120000	1430.053711	3197.001953
9.130000	1433.074951	3374.003906
9.140000	1441.802979	3532.695312
9.150000	1435.760498	3663.920898
9.160000	1442.474365	3853.129883
9.170000	1440.460205	3993.510742
9.180000	1451.202393	4207.133789
9.190000	1446.166992	4390.239258
9.200000	1447.845459	4539.775391
9.210000	1449.188232	4732.036133
9.220000	1451.202393	4979.228516
9.230000	1450.866699	5208.110352
9.240000	1455.566406	5507.182617
9.250000	1458.251953	5803.203125
9.260000	1463.623047	5964.946289
9.270000	1462.615967	6239.604492
9.280000	1465.637207	6480.693359
9.290000	1473.693848	6773.662109
9.300000	1466.308594	7118.510742
9.310000	1464.965820	7564.067383
9.320000	1476.043701	7976.054687
9.330000	1473.358154	8360.576172
9.340000	1467.987061	8702.373047
9.350000	1463.958740	9068.583984
9.360000	1461.608887	9428.691406
9.370000	1452.209473	9999.370117
9.380000	1452.545166	10594.462891
9.390000	1457.916260	11506.938477
9.400000	1454.895020	12556.743164
9.410000	1450.531006	13780.498047
9.420000	1454.559326	14842.509766
9.430000	1448.852539	15767.192383
9.440000	1464.294434	16578.959961
9.450000	1470.001221	17457.866211
9.460000	1481.414795	18382.548828
9.470000	1487.121582	19374.370117
9.480000	1468.322754	20530.986328
9.490000	1469.665527	21922.587891
9.500000	1504.577637	22975.444336
9.510000	1521.026611	23704.814453
9.520000	1528.411865	24370.097656
9.530000	1533.447266	24931.621094
9.540000	1541.839600	25462.626953
9.550000	1556.610107	25966.166992
9.560000	1551.239014	26350.688477
9.570000	1555.603027	26762.675781
9.580000	1560.638428	27165.507812
9.590000	1555.603027	27482.890625
9.600000	1563.659668	27830.791016
9.610000	1571.380615	28126.811523
9.620000	1570.037842	28456.401367
9.630000	1568.695068	28749.370117
9.640000	1583.129883	29045.390625
9.650000	1580.780029	29378.032227
9.660000	1589.508057	29600.810547
9.670000	1590.515137	29811.381836
9.680000	1596.221924	30107.402344
9.690000	1595.550537	30348.491211
9.700000	1597.900391	30595.683594
9.710000	1600.585937	30800.151367
9.720000	1600.921631	31059.550781
9.730000	1606.292725	31276.225586
9.740000	1605.957031	31502.055664
9.750000	1607.635498	31733.989258
9.760000	1607.635498	31898.784180
9.770000	1613.006592	32097.148437
9.780000	1614.685059	32322.978516
9.790000	1613.342285	32481.669922
9.800000	1620.391846	32734.965820
9.810000	1621.734619	32899.760742
9.820000	1624.755859	33159.160156
9.830000	1630.126953	33290.385742
9.840000	1631.134033	33452.128906
9.850000	1633.819580	33699.321289
9.860000	1632.476807	33879.375000
9.870000	1634.826660	34114.360352
9.880000	1627.777100	34248.637695
9.890000	1639.526367	34419.536133
9.900000	1645.568848	34630.107422
9.910000	1648.590088	34822.368164
9.920000	1643.890381	35032.939453
9.930000	1645.568848	35200.786133
9.940000	1654.968262	35423.564453
9.950000	1650.604248	35624.980469
9.960000	1656.311035	35747.050781
9.970000	1662.353516	36003.398437
9.980000	1661.010742	36192.607422
9.990000	1663.360596	36433.696289
10.000000	1654.968262	36528.300781
10.010000	1661.346436	36821.269531
10.020000	1667.388916	36986.064453
10.030000	1670.410156	37208.842773
10.040000	1674.438477	37419.414062
10.050000	1673.767090	37666.606445
10.060000	1677.795410	37828.349609
10.070000	1679.138184	38029.765625
10.080000	1684.844971	38228.129883
10.090000	1681.823730	38463.115234
10.100000	1683.166504	38673.686523
10.110000	1696.929932	38878.154297
10.120000	1687.194824	39091.777344
10.130000	1693.908691	39302.348633
10.140000	1701.629639	39543.437500
10.150000	1690.216064	39735.698242
10.160000	1701.629639	39964.580078
10.170000	1704.986572	40199.565430
10.180000	1697.265625	40382.670898
10.190000	1702.636719	40639.018555
10.200000	1707.672119	40858.745117
10.210000	1712.036133	41127.299805
10.220000	1712.371826	41362.285156
10.230000	1716.735840	41566.752930
10.240000	1719.085693	41795.634766
10.250000	1718.750000	42067.241211
10.260000	1722.778320	42247.294922
10.270000	1722.778320	42488.383789
10.280000	1726.470947	42738.627930
10.290000	1732.513428	42982.768555
10.300000	1728.149414	43223.857422
10.310000	1734.863281	43513.774414
10.320000	1738.220215	43751.811523
10.330000	1739.898682	44011.210937
10.340000	1743.591309	44203.471680
10.350000	1740.905762	44536.113281
10.360000	1746.276855	44774.150391
10.370000	1745.605469	45045.756836
10.380000	1746.612549	45296.000977
10.390000	1756.347656	45579.814453
10.400000	1754.333496	45845.317383
10.410000	1761.047363	46092.509766
10.420000	1766.082764	46388.530273
10.430000	1760.375977	46632.670898
10.440000	1763.397217	46943.950195
10.450000	1764.404297	47212.504883
10.460000	1770.782471	47484.111328
10.470000	1770.782471	47731.303711
10.480000	1775.146484	48066.997070
10.490000	1779.846191	48314.189453
10.500000	1775.146484	48616.313477
10.510000	1781.188965	48872.661133
10.520000	1784.881592	49183.940430
10.530000	1784.881592	49473.857422
10.540000	1791.595459	49812.602539
10.550000	1790.588379	50123.881836
10.560000	1794.952393	50383.281250
10.570000	1795.288086	50657.939453
10.580000	1797.637939	50953.959961
10.590000	1799.652100	51246.928711
10.600000	1804.687500	51536.845703
10.610000	1806.701660	51851.176758
10.620000	1808.380127	52174.663086
10.630000	1811.737061	52519.511719
10.640000	1814.758301	52821.635742
10.650000	1807.373047	53142.070312
10.660000	1815.765381	53468.608398
10.670000	1817.443848	53831.767578
10.680000	1823.822021	54161.357422
10.690000	1824.493408	54530.620117
10.700000	1828.186035	54823.588867
10.710000	1831.878662	55195.903320
10.720000	1831.878662	55473.613281
10.730000	1839.935303	55885.600586
10.740000	1836.242676	56221.293945
10.750000	1836.578369	56599.711914
10.760000	1841.949463	56956.767578
10.770000	1846.313477	57374.858398
10.780000	1844.970703	57704.448242
10.790000	1851.013184	58104.228516
10.800000	1853.698730	58446.025391
10.810000	1846.984863	58818.339844
10.820000	1858.062744	59163.188477
10.830000	1860.076904	59556.865234
10.840000	1862.426758	59904.765625
10.850000	1860.748291	60280.131836
10.860000	1870.819092	60719.584961
10.870000	1866.790771	61024.760742
10.880000	1870.819092	61406.230469
10.890000	1874.176025	61799.907227
10.900000	1877.532959	62217.998047
10.910000	1874.511719	62629.985352
10.920000	1880.554199	63023.662109
10.930000	1883.575439	63417.338867
10.940000	1881.225586	63835.429687
10.950000	1884.246826	64259.624023
10.960000	1892.303467	64702.128906
10.970000	1890.960693	65114.116211
10.980000	1894.989014	65581.035156
10.990000	1898.681641	65938.090820
11.000000	1904.724121	66426.372070
11.010000	1902.038574	66829.204102
11.020000	1905.059814	67277.812500
11.030000	1903.717041	67680.644531
11.040000	1910.095215	68153.666992
11.050000	1909.759521	68495.463867
11.060000	1914.794922	69026.469727
11.070000	1917.480469	69453.715820
11.080000	1921.844482	69972.514648
11.090000	1911.437988	70396.708984
11.100000	1920.501709	70894.145508
11.110000	1926.544189	71348.857422
11.120000	1927.215576	71870.708008
11.130000	1926.208496	72294.902344
11.140000	1931.579590	72810.649414
11.150000	1934.600830	73265.361328
11.160000	1938.964844	73793.315430
11.170000	1936.614990	74244.975586
11.180000	1945.343018	74824.809570
11.190000	1944.000244	75313.090820
11.200000	1946.350098	75816.630859
11.210000	1951.721191	76368.999023
11.220000	1952.728271	76887.797852
11.230000	1954.071045	77431.010742
11.240000	1957.763672	77980.327148
11.250000	1956.756592	78532.695312
11.260000	1965.820312	79091.166992
11.270000	1963.470459	79667.949219
11.280000	1964.477539	80226.420898
11.290000	1974.884033	80800.151367
11.300000	1969.848633	81373.881836
11.310000	1973.205566	81993.388672
11.320000	1974.212646	82579.326172
11.330000	1978.240967	83223.247070
11.340000	1979.919434	83806.132812
11.350000	1976.898193	84422.587891
11.360000	1988.647461	84962.749023
11.370000	1986.297607	85640.239258
11.380000	1986.633301	86226.176758
11.390000	1990.661621	86891.459961
11.400000	1992.340088	87510.966797
11.410000	1997.039795	88234.233398
11.420000	1995.361328	88872.050781
11.430000	2005.767822	89570.903320
11.440000	2000.732422	90239.238281
11.450000	1999.389648	90950.297852
11.460000	2008.453369	91606.425781
11.470000	2006.774902	92351.054687
11.480000	2000.732422	93095.683594
11.490000	2013.488770	93806.743164
11.500000	2013.824463	94551.372070
11.510000	2016.845703	95302.104492
11.520000	2019.866943	96052.836914
11.530000	2021.881104	96846.293945
11.540000	2024.230957	97679.423828
11.550000	2023.559570	98411.845703
11.560000	2029.266357	99223.613281
11.570000	2027.252197	100072.001953
11.580000	2029.937744	100944.804687
11.590000	2035.308838	101707.744141
11.600000	2034.637451	102537.822266
11.610000	2037.322998	103404.521484
11.620000	2041.351318	104283.427734
11.630000	2040.679932	105171.489258
11.640000	2048.065186	106141.948242
11.650000	2040.679932	106141.948242
11.660000	2089.691162	106141.948242
11.670000	2048.065186	106141.948242
11.680000	2055.450439	106141.948242
11.690000	2052.093506	106141.948242
11.700000	2054.107666	106141.948242
11.710000	2041.687012	106141.948242
11.720000	2035.308838	106141.948242
11.730000	2031.951904	106141.948242
11.740000	1999.053955	106141.948242
11.750000	1968.170166	106141.948242
11.760000	1907.073975	106141.948242
11.770000	1857.391357	106141.948242
11.780000	1786.895752	106141.948242
11.790000	1655.639648	106141.948242
11.800000	1537.475586	106141.948242
11.810000	1410.583496	106141.948242
11.820000	1203.125000	106141.948242
11.830000	837.890625	106141.948242
11.840000	502.197266	106141.948242
11.850000	276.611328	106141.948242
11.860000	165.161133	106141.948242
11.870000	125.885010	106141.948242
11.880000	107.086182	106141.948242
11.890000	91.979980	106141.948242
11.900000	78.216553	106141.948242
11.910000	74.188232	106141.948242
11.920000	70.831299	106141.948242
11.930000	69.488525	106141.948242
11.940000	65.795898	106141.948242
11.950000	68.817139	106141.948242
11.960000	67.138672	106141.948242
11.970000	67.474365	106141.948242
11.980000	68.817139	106141.948242
11.990000	65.795898	106141.948242
12.000000	65.124512	106141.948242
12.010000	61.767578	106141.948242
12.020000	60.760498	106141.948242
12.030000	54.382324	106141.948242
12.040000	62.774658	106141.948242
12.050000	60.760498	106141.948242
12.060000	63.110352	106141.948242
12.070000	56.396484	106141.948242
12.080000	57.403564	106141.948242
12.090000	58.074951	106141.948242
12.100000	57.403564	106141.948242
12.110000	53.039551	106141.948242
12.120000	56.060791	106141.948242
12.130000	57.403564	106141.948242
12.140000	56.060791	106141.948242
12.150000	55.053711	106141.948242
12.160000	55.389404	106141.948242
12.170000	56.732178	106141.948242
12.180000	56.060791	106141.948242
12.190000	56.060791	106141.948242
12.200000	57.739258	106141.948242
12.210000	56.060791	106141.948242
12.220000	55.725098	106141.948242
12.230000	57.739258	106141.948242
12.240000	59.082031	106141.948242
12.250000	56.060791	106141.948242
12.260000	55.053711	106141.948242
12.270000	54.718018	106141.948242
12.280000	57.067871	106141.948242
12.290000	54.718018	106141.948242
12.300000	60.089111	106141.948242
12.310000	55.053711	106141.948242
12.320000	54.046631	106141.948242
12.330000	53.375244	106141.948242
12.340000	54.718018	106141.948242
12.350000	52.703857	106141.948242
12.360000	52.368164	106141.948242
12.370000	54.718018	106141.948242
12.380000	54.382324	106141.948242
12.390000	52.703857	106141.948242
12.400000	51.696777	106141.948242
12.410000	54.046631	106141.948242
12.420000	53.375244	106141.948242
12.430000	53.710937	106141.948242
12.440000	53.710937	106141.948242
12.450000	53.375244	106141.948242
12.460000	51.696777	106141.948242
12.470000	54.046631	106141.948242
12.480000	53.039551	106141.948242
12.490000	56.060791	106141.948242
12.500000	54.046631	106141.948242
12.510000	55.389404	106141.948242
12.520000	52.703857	106141.948242
12.530000	53.039551	106141.948242
12.540000	54.046631	106141.948242
12.550000	53.039551	106141.948242
12.560000	52.032471	106141.948242
12.570000	52.703857	106141.948242
12.580000	53.375244	106141.948242
12.590000	51.361084	106141.948242
12.600000	51.696777	106141.948242
12.610000	48.675537	106141.948242
12.620000	55.725098	106141.948242
12.630000	50.689697	106141.948242
12.640000	57.739258	106141.948242
12.650000	48.339844	106141.948242
12.660000	49.011230	106141.948242
12.670000	51.361084	106141.948242
12.680000	51.025391	106141.948242
12.690000	55.725098	106141.948242
12.700000	52.368164	106141.948242
12.710000	50.689697	106141.948242
12.720000	52.703857	106141.948242
12.730000	50.689697	106141.948242
12.740000	48.675537	106141.948242
12.750000	48.339844	106141.948242
12.760000	50.018311	106141.948242
12.770000	51.025391	106141.948242
12.780000	50.354004	106141.948242
12.790000	45.989990	106141.948242
12.800000	51.696777	106141.948242
12.810000	51.361084	106141.948242
12.820000	54.046631	106141.948242
12.830000	51.361084	106141.948242
12.840000	52.032471	106141.948242
12.850000	45.989990	106141.948242
12.860000	51.361084	106141.948242
12.870000	53.710937	106141.948242
12.880000	54.718018	106141.948242
12.890000	52.703857	106141.948242
12.900000	54.046631	106141.948242
12.910000	51.361084	106141.948242
12.920000	51.696777	106141.948242
12.930000	54.382324	106141.948242
12.940000	51.696777	106141.948242
12.950000	51.696777	106141.948242
12.960000	48.675537	106141.948242
12.970000	52.368164	106141.948242
12.980000	51.696777	106141.948242
12.990000	53.375244	106141.948242
13.000000	51.361084	106141.948242
13.010000	50.689697	106141.948242
13.020000	49.682617	106141.948242
13.030000	51.696777	106141.948242
13.040000	53.039551	106141.948242
13.050000	45.318604	106141.948242
13.060000	51.361084	106141.948242
13.070000	48.675537	106141.948242
13.080000	51.361084	106141.948242
13.090000	53.375244	106141.948242
13.100000	45.318604	106141.948242
13.110000	57.067871	106141.948242
13.120000	52.032471	106141.948242
13.130000	51.696777	106141.948242
13.140000	49.346924	106141.948242
13.150000	50.689697	106141.948242
13.160000	52.703857	106141.948242
13.170000	49.011230	106141.948242
13.180000	52.032471	106141.948242
13.190000	49.011230	106141.948242
13.200000	49.011230	106141.948242
13.210000	48.675537	106141.948242
13.220000	48.675537	106141.948242
13.230000	50.689697	106141.948242
13.240000	50.018311	106141.948242
13.250000	50.689697	106141.948242
13.260000	51.361084	106141.948242
13.270000	45.318604	106141.948242
13.280000	50.689697	106141.948242
13.290000	47.332764	106141.948242
13.300000	42.968750	106141.948242
13.310000	52.703857	106141.948242
13.320000	49.682617	106141.948242
13.330000	50.354004	106141.948242
13.340000	44.647217	106141.948242
13.350000	49.682617	106141.948242
13.360000	47.668457	106141.948242
13.370000	49.011230	106141.948242
13.380000	53.375244	106141.948242
13.390000	50.354004	106141.948242
13.400000	50.689697	106141.948242
13.410000	51.361084	106141.948242
13.420000	50.689697	106141.948242
13.430000	56.732178	106141.948242
13.440000	49.682617	106141.948242
13.450000	48.004150	106141.948242
13.460000	50.018311	106141.948242
13.470000	50.689697	106141.948242
13.480000	42.633057	106141.948242
13.490000	49.011230	106141.948242
13.500000	52.703857	106141.948242
13.510000	45.318604	106141.948242
13.520000	49.346924	106141.948242
13.530000	50.689697	106141.948242
13.540000	50.689697	106141.948242
13.550000	45.989990	106141.948242
13.560000	52.368164	106141.948242
13.570000	53.039551	106141.948242
13.580000	50.689697	106141.948242
13.590000	50.354004	106141.948242
13.600000	49.682617	106141.948242
13.610000	49.346924	106141.948242
13.620000	50.018311	106141.948242
13.630000	52.703857	106141.948242
13.640000	50.018311	106141.948242
13.650000	52.032471	106141.948242
13.660000	51.025391	106141.948242
13.670000	50.354004	106141.948242
13.680000	51.696777	106141.948242
13.690000	52.032471	106141.948242
13.700000	49.682617	106141.948242
13.710000	53.375244	106141.948242
13.720000	51.361084	106141.948242
13.730000	53.375244	106141.948242
13.740000	51.696777	106141.948242
13.750000	45.654297	106141.948242
13.760000	53.039551	106141.948242
13.770000	52.368164	106141.948242
13.780000	46.997070	106141.948242
13.790000	51.696777	106141.948242
13.800000	52.368164	106141.948242
13.810000	44.647217	106141.948242
13.820000	52.032471	106141.948242
13.830000	49.682617	106141.948242
13.840000	50.689697	106141.948242
13.850000	48.675537	106141.948242
13.860000	47.668457	106141.948242
13.870000	51.361084	106141.948242
13.880000	51.361084	106141.948242
13.890000	48.004150	106141.948242
13.900000	48.675537	106141.948242
13.910000	52.368164	106141.948242
13.920000	53.039551	106141.948242
13.930000	52.032471	106141.948242
13.940000	53.039551	106141.948242
13.950000	52.368164	106141.948242
13.960000	50.354004	106141.948242
13.970000	47.668457	106141.948242
13.980000	53.375244	106141.948242
13.990000	50.018311	106141.948242
14.000000	51.361084	106141.948242
14.010000	51.025391	106141.948242
14.020000	51.361084	106141.948242
14.030000	54.718018	106141.948242
14.040000	53.375244	106141.948242
14.050000	50.354004	106141.948242
14.060000	49.346924	106141.948242
14.070000	52.703857	106141.948242
14.080000	49.346924	106141.948242
14.090000	51.696777	106141.948242
14.100000	46.997070	106141.948242
14.110000	50.354004	106141.948242
14.120000	50.354004	106141.948242
14.130000	51.696777	106141.948242
14.140000	53.375244	106141.948242
14.150000	53.039551	106141.948242
14.160000	53.710937	106141.948242
14.170000	52.703857	106141.948242
14.180000	52.368164	106141.948242
14.190000	52.703857	106141.948242
14.200000	53.039551	106141.948242
14.210000	53.710937	106141.948242
14.220000	52.368164	106141.948242
14.230000	55.725098	106141.948242
14.240000	53.710937	106141.948242
14.250000	52.703857	106141.948242
14.260000	50.689697	106141.948242
14.270000	55.725098	106141.948242
14.280000	59.417725	106141.948242
14.290000	51.361084	106141.948242
14.300000	51.696777	106141.948242
14.310000	53.039551	106141.948242
14.320000	50.354004	106141.948242
14.330000	54.382324	106141.948242
14.340000	50.354004	106141.948242
14.350000	49.682617	106141.948242
14.360000	52.368164	106141.948242
14.370000	46.661377	106141.948242
14.380000	49.682617	106141.948242
14.390000	52.703857	106141.948242
14.400000	50.689697	106141.948242
14.410000	49.682617	106141.948242
14.420000	50.354004	106141.948242
14.430000	50.354004	106141.948242
14.440000	51.025391	106141.948242
14.450000	43.975830	106141.948242
14.460000	56.732178	106141.948242
14.470000	50.018311	106141.948242
14.480000	49.682617	106141.948242
14.490000	52.368164	106141.948242
14.500000	48.675537	106141.948242
14.510000	51.025391	106141.948242
14.520000	48.339844	106141.948242
14.530000	49.682617	106141.948242
14.540000	51.025391	106141.948242
14.550000	54.718018	106141.948242
14.560000	50.354004	106141.948242
14.570000	52.368164	106141.948242
14.580000	51.025391	106141.948242
14.590000	51.361084	106141.948242
14.600000	52.368164	106141.948242
14.610000	51.361084	106141.948242
14.620000	51.361084	106141.948242
14.630000	47.332764	106141.948242
14.640000	56.396484	106141.948242
14.650000	53.039551	106141.948242
14.660000	52.032471	106141.948242
14.670000	51.696777	106141.948242
14.680000	52.032471	106141.948242
14.690000	53.375244	106141.948242
14.700000	52.368164	106141.948242
14.710000	52.368164	106141.948242
14.720000	53.039551	106141.948242
14.730000	53.039551	106141.948242
14.740000	52.368164	106141.948242
14.750000	51.025391	106141.948242
14.760000	52.032471	106141.948242
14.770000	53.375244	106141.948242
14.780000	50.689697	106141.948242
14.790000	53.710937	106141.948242
14.800000	53.039551	106141.948242
14.810000	50.354004	106141.948242
14.820000	52.032471	106141.948242
14.830000	56.732178	106141.948242
14.840000	51.361084	106141.948242
14.850000	56.396484	106141.948242
14.860000	53.039551	106141.948242
14.870000	52.032471	106141.948242
14.880000	52.703857	106141.948242
14.890000	50.018311	106141.948242
14.900000	52.703857	106141.948242
14.910000	51.025391	106141.948242
14.920000	52.703857	106141.948242
14.930000	51.361084	106141.948242
14.940000	52.032471	106141.948242
14.950000	53.039551	106141.948242
14.960000	51.696777	106141.948242
14.970000	52.032471	106141.948242
14.980000	52.703857	106141.948242
14.990000	51.361084	106141.948242
15.000000	52.703857	106141.948242
15.010000	50.018311	106141.948242
15.020000	53.375244	106141.948242
15.030000	49.346924	106141.948242
15.040000	51.696777	106141.948242
15.050000	53.375244	106141.948242
15.060000	53.710937	106141.948242
15.070000	53.039551	106141.948242
15.080000	53.710937	106141.948242
15.090000	56.732178	106141.948242
15.100000	53.375244	106141.948242
15.110000	55.725098	106141.948242
15.120000	56.060791	106141.948242
15.130000	45.654297	106141.948242
15.140000	53.039551	106141.948242
15.150000	54.382324	106141.948242
15.160000	57.403564	106141.948242
15.170000	53.710937	106141.948242
15.180000	53.710937	106141.948242
15.190000	48.004150	106141.948242
15.200000	53.375244	106141.948242
15.210000	53.039551	106141.948242
15.220000	52.703857	106141.948242
15.230000	53.375244	106141.948242
15.240000	54.382324	106141.948242
15.250000	55.389404	106141.948242
15.260000	53.039551	106141.948242
15.270000	55.389404	106141.948242
15.280000	54.046631	106141.948242
15.290000	54.046631	106141.948242
15.300000	53.039551	106141.948242
15.310000	54.382324	106141.948242
15.320000	52.368164	106141.948242
15.330000	53.375244	106141.948242
15.340000	59.753418	106141.948242
15.350000	55.725098	106141.948242
15.360000	53.375244	106141.948242
15.370000	54.382324	106141.948242
15.380000	55.389404	106141.948242
15.390000	54.718018	106141.948242
15.400000	53.039551	106141.948242
15.410000	53.375244	106141.948242
15.420000	54.382324	106141.948242
15.430000	57.739258	106141.948242
15.440000	54.046631	106141.948242
15.450000	59.753418	106141.948242
15.460000	55.389404	106141.948242
15.470000	53.375244	106141.948242
15.480000	56.396484	106141.948242
15.490000	60.760498	106141.948242
15.500000	52.032471	106141.948242
15.510000	54.382324	106141.948242
15.520000	54.382324	106141.948242
15.530000	58.410645	106141.948242
15.540000	55.725098	106141.948242
15.550000	56.060791	106141.948242
15.560000	54.382324	106141.948242
15.570000	48.675537	106141.948242
15.580000	54.718018	106141.948242
15.590000	54.046631	106141.948242
15.600000	55.053711	106141.948242
15.610000	54.382324	106141.948242
15.620000	57.739258	106141.948242
15.630000	55.053711	106141.948242
15.640000	56.396484	106141.948242
15.650000	54.382324	106141.948242
15.660000	56.396484	106141.948242
15.670000	55.389404	106141.948242
15.680000	55.389404	106141.948242
15.690000	56.396484	106141.948242
15.700000	54.046631	106141.948242
15.710000	56.060791	106141.948242
15.720000	55.053711	106141.948242
15.730000	55.389404	106141.948242
15.740000	56.396484	106141.948242
15.750000	54.718018	106141.948242
15.760000	52.368164	106141.948242
15.770000	56.060791	106141.948242
15.780000	56.060791	106141.948242
15.790000	54.382324	106141.948242
15.800000	51.696777	106141.948242
15.810000	57.067871	106141.948242
15.820000	56.732178	106141.948242
15.830000	56.732178	106141.948242
15.840000	57.067871	106141.948242
15.850000	54.382324	106141.948242
15.860000	54.718018	106141.948242
15.870000	55.725098	106141.948242
15.880000	55.053711	106141.948242
15.890000	55.725098	106141.948242
15.900000	55.053711	106141.948242
15.910000	50.018311	106141.948242
15.920000	56.732178	106141.948242
15.930000	57.067871	106141.948242
15.940000	56.396484	106141.948242
15.950000	55.389404	106141.948242
15.960000	56.060791	106141.948242
15.970000	52.032471	106141.948242
15.980000	57.067871	106141.948242
15.990000	58.746338	106141.948242
16.000000	55.725098	106141.948242
16.010000	55.725098	106141.948242
16.020000	55.389404	106141.948242
16.030000	60.760498	106141.948242
16.040000	46.661377	106141.948242
16.050000	59.082031	106141.948242
16.060000	55.389404	106141.948242
16.070000	62.774658	106141.948242
16.080000	58.410645	106141.948242
16.090000	53.375244	106141.948242
16.100000	57.739258	106141.948242
16.110000	55.725098	106141.948242
16.120000	56.732178	106141.948242
16.130000	55.725098	106141.948242
16.140000	52.368164	106141.948242
16.150000	56.396484	106141.948242
16.160000	56.060791	106141.948242
16.170000	57.403564	106141.948242
16.180000	58.410645	106141.948242
16.190000	56.060791	106141.948242
16.200000	58.410645	106141.948242
16.210000	56.060791	106141.948242
16.220000	56.060791	106141.948242
16.230000	58.410645	106141.948242
16.240000	52.703857	106141.948242
16.250000	57.403564	106141.948242
16.260000	56.396484	106141.948242
16.270000	55.389404	106141.948242
16.280000	59.417725	106141.948242
16.290000	54.718018	106141.948242
16.300000	54.046631	106141.948242
16.310000	57.403564	106141.948242
16.320000	58.410645	106141.948242
16.330000	57.067871	106141.948242
16.340000	58.074951	106141.948242
16.350000	57.067871	106141.948242
16.360000	57.403564	106141.948242
16.370000	56.396484	106141.948242
16.380000	58.410645	106141.948242
16.390000	49.682617	106141.948242
16.400000	57.739258	106141.948242
16.410000	56.732178	106141.948242
16.420000	57.739258	106141.948242
16.430000	56.732178	106141.948242
16.440000	52.703857	106141.948242
16.450000	49.346924	106141.948242
16.460000	55.725098	106141.948242
16.470000	56.060791	106141.948242
16.480000	52.703857	106141.948242
16.490000	56.060791	106141.948242
16.500000	57.067871	106141.948242
16.510000	56.732178	106141.948242
16.520000	57.739258	106141.948242
16.530000	58.410645	106141.948242
16.540000	57.403564	106141.948242
16.550000	58.410645	106141.948242
16.560000	56.060791	106141.948242
16.570000	57.739258	106141.948242
16.580000	57.403564	106141.948242
16.590000	57.067871	106141.948242
16.600000	57.739258	106141.948242
16.610000	53.375244	106141.948242
16.620000	57.403564	106141.948242
16.630000	58.074951	106141.948242
16.640000	55.725098	106141.948242
16.650000	55.389404	106141.948242
16.660000	56.732178	106141.948242
16.670000	49.011230	106141.948242
16.680000	57.403564	106141.948242
16.690000	63.446045	106141.948242
16.700000	56.396484	106141.948242
16.710000	57.739258	106141.948242
16.720000	56.732178	106141.948242
16.730000	55.053711	106141.948242
16.740000	58.410645	106141.948242
16.750000	55.389404	106141.948242
16.760000	56.060791	106141.948242
16.770000	59.417725	106141.948242
16.780000	55.389404	106141.948242
16.790000	57.403564	106141.948242
16.800000	56.732178	106141.948242
16.810000	56.060791	106141.948242
16.820000	56.396484	106141.948242
16.830000	63.446045	106141.948242
16.840000	59.082031	106141.948242
16.850000	55.053711	106141.948242
16.860000	55.725098	106141.948242
16.870000	57.403564	106141.948242
16.880000	56.060791	106141.948242
16.890000	49.346924	106141.948242
16.900000	56.060791	106141.948242
16.910000	57.739258	106141.948242
16.920000	57.403564	106141.948242
16.930000	58.746338	106141.948242
16.940000	57.403564	106141.948242
16.950000	59.417725	106141.948242
16.960000	58.410645	106141.948242
16.970000	54.718018	106141.948242
16.980000	59.417725	106141.948242
16.990000	58.410645	106141.948242
17.000000	58.746338	106141.948242
17.010000	58.074951	106141.948242
17.020000	60.089111	106141.948242
17.030000	58.746338	106141.948242
17.040000	58.074951	106141.948242
17.050000	63.110352	106141.948242
17.060000	59.753418	106141.948242
17.070000	60.760498	106141.948242
17.080000	58.074951	106141.948242
17.090000	58.746338	106141.948242
17.100000	59.417725	106141.948242
17.110000	58.746338	106141.948242
17.120000	59.082031	106141.948242
17.130000	58.074951	106141.948242
17.140000	56.396484	106141.948242
17.150000	58.074951	106141.948242
17.160000	57.403564	106141.948242
17.170000	58.074951	106141.948242
17.180000	57.739258	106141.948242
17.190000	59.753418	106141.948242
17.200000	58.074951	106141.948242
17.210000	58.746338	106141.948242
17.220000	60.760498	106141.948242
17.230000	57.739258	106141.948242
17.240000	61.096191	106141.948242
17.250000	59.082031	106141.948242
17.260000	58.746338	106141.948242
17.270000	57.067871	106141.948242
17.280000	60.760498	106141.948242
17.290000	58.746338	106141.948242
17.300000	57.739258	106141.948242
17.310000	57.403564	106141.948242
17.320000	58.074951	106141.948242
17.330000	58.410645	106141.948242
17.340000	58.410645	106141.948242
17.350000	59.417725	106141.948242
17.360000	57.403564	106141.948242
17.370000	59.082031	106141.948242
17.380000	60.089111	106141.948242
17.390000	59.417725	106141.948242
17.400000	60.424805	106141.948242
17.410000	58.410645	106141.948242
17.420000	58.746338	106141.948242
17.430000	60.424805	106141.948242
17.440000	60.089111	106141.948242
17.450000	58.746338	106141.948242
17.460000	58.746338	106141.948242
17.470000	51.025391	106141.948242
17.480000	65.460205	106141.948242
17.490000	61.096191	106141.948242
17.500000	61.431885	106141.948242
17.510000	57.403564	106141.948242
17.520000	64.117432	106141.948242
17.530000	60.424805	106141.948242
17.540000	58.746338	106141.948242
17.550000	64.117432	106141.948242
17.560000	58.746338	106141.948242
17.570000	59.417725	106141.948242
17.580000	57.739258	106141.948242
17.590000	57.067871	106141.948242
17.600000	59.417725	106141.948242
17.610000	56.396484	106141.948242
17.620000	61.767578	106141.948242
17.630000	58.746338	106141.948242
17.640000	58.074951	106141.948242
17.650000	58.410645	106141.948242
17.660000	58.746338	106141.948242
17.670000	57.067871	106141.948242
17.680000	50.689697	106141.948242
17.690000	60.089111	106141.948242
17.700000	55.389404	106141.948242
17.710000	56.060791	106141.948242
17.720000	57.739258	106141.948242
17.730000	56.732178	106141.948242
17.740000	57.403564	106141.948242
17.750000	59.082031	106141.948242
17.760000	57.403564	106141.948242
17.770000	58.746338	106141.948242
17.780000	57.067871	106141.948242
17.790000	57.739258	106141.948242
17.800000	58.410645	106141.948242
17.810000	59.753418	106141.948242
17.820000	58.746338	106141.948242
17.830000	61.096191	106141.948242
17.840000	59.082031	106141.948242
17.850000	57.403564	106141.948242
17.860000	58.410645	106141.948242
17.870000	57.739258	106141.948242
17.880000	61.096191	106141.948242
17.890000	58.746338	106141.948242
17.900000	59.753418	106141.948242
17.910000	59.417725	106141.948242
17.920000	59.417725	106141.948242
17.930000	57.403564	106141.948242
17.940000	60.760498	106141.948242
17.950000	55.053711	106141.948242
17.960000	59.082031	106141.948242
17.970000	58.746338	106141.948242
17.980000	55.053711	106141.948242
17.990000	58.746338	106141.948242
18.000000	60.424805	106141.948242
18.010000	51.361084	106141.948242
18.020000	57.403564	106141.948242
18.030000	58.410645	106141.948242
18.040000	60.760498	106141.948242
18.050000	60.760498	106141.948242
18.060000	58.746338	106141.948242
18.070000	56.396484	106141.948242
18.080000	57.739258	106141.948242
18.090000	60.760498	106141.948242
18.100000	61.096191	106141.948242
18.110000	58.074951	106141.948242
18.120000	60.089111	106141.948242
18.130000	59.753418	106141.948242
18.140000	58.074951	106141.948242
18.150000	58.410645	106141.948242
18.160000	59.753418	106141.948242
18.170000	57.739258	106141.948242
18.180000	60.089111	106141.948242
18.190000	60.089111	106141.948242
18.200000	55.053711	106141.948242
18.210000	58.746338	106141.948242
18.220000	59.753418	106141.948242
18.230000	59.753418	106141.948242
18.240000	60.760498	106141.948242
18.250000	58.074951	106141.948242
18.260000	53.710937	106141.948242
18.270000	57.739258	106141.948242
18.280000	59.417725	106141.948242
18.290000	58.746338	106141.948242
18.300000	62.438965	106141.948242
18.310000	57.067871	106141.948242
18.320000	58.746338	106141.948242
18.330000	58.410645	106141.948242
18.340000	57.403564	106141.948242
18.350000	61.096191	106141.948242
18.360000	55.053711	106141.948242
18.370000	59.753418	106141.948242
18.380000	60.089111	106141.948242
18.390000	60.760498	106141.948242
18.400000	59.417725	106141.948242
18.410000	60.424805	106141.948242
18.420000	59.417725	106141.948242
18.430000	59.417725	106141.948242
18.440000	62.103271	106141.948242
18.450000	54.718018	106141.948242
18.460000	58.746338	106141.948242
18.470000	60.424805	106141.948242
18.480000	59.082031	106141.948242
18.490000	58.074951	106141.948242
18.500000	59.753418	106141.948242
18.510000	60.089111	106141.948242
18.520000	60.089111	106141.948242
18.530000	58.074951	106141.948242
18.540000	61.767578	106141.948242
18.550000	59.753418	106141.948242
18.560000	59.417725	106141.948242
18.570000	59.753418	106141.948242
18.580000	58.746338	106141.948242
18.590000	57.403564	106141.948242
18.600000	60.424805	106141.948242
18.610000	60.089111	106141.948242
18.620000	59.753418	106141.948242
18.630000	57.739258	106141.948242
18.640000	62.774658	106141.948242
18.650000	60.424805	106141.948242
18.660000	60.089111	106141.948242
18.670000	61.096191	106141.948242
18.680000	59.753418	106141.948242
18.690000	61.096191	106141.948242
18.700000	60.424805	106141.948242
18.710000	58.746338	106141.948242
18.720000	59.753418	106141.948242
18.730000	59.082031	106141.948242
18.740000	60.760498	106141.948242
18.750000	60.089111	106141.948242
18.760000	60.424805	106141.948242
18.770000	63.110352	106141.948242
18.780000	60.089111	106141.948242
18.790000	60.089111	106141.948242
18.800000	59.753418	106141.948242
18.810000	56.732178	106141.948242
18.820000	60.424805	106141.948242
18.830000	61.767578	106141.948242
18.840000	61.431885	106141.948242
18.850000	60.760498	106141.948242
18.860000	58.074951	106141.948242
18.870000	58.746338	106141.948242
18.880000	57.067871	106141.948242
18.890000	60.760498	106141.948242
18.900000	62.103271	106141.948242
18.910000	62.438965	106141.948242
18.920000	52.368164	106141.948242
18.930000	61.431885	106141.948242
18.940000	60.760498	106141.948242
18.950000	63.446045	106141.948242
18.960000	59.753418	106141.948242
18.970000	58.746338	106141.948242
18.980000	61.767578	106141.948242
18.990000	59.082031	106141.948242
19.000000	58.746338	106141.948242
19.010000	60.760498	106141.948242
19.020000	60.089111	106141.948242
19.030000	57.403564	106141.948242
19.040000	62.103271	106141.948242
19.050000	58.746338	106141.948242
19.060000	52.032471	106141.948242
19.070000	60.424805	106141.948242
19.080000	60.760498	106141.948242
19.090000	59.082031	106141.948242
19.100000	61.767578	106141.948242
19.110000	60.424805	106141.948242
19.120000	61.431885	106141.948242
19.130000	61.096191	106141.948242
19.140000	59.753418	106141.948242
19.150000	62.103271	106141.948242
19.160000	63.446045	106141.948242
19.170000	61.431885	106141.948242
19.180000	61.431885	106141.948242
19.190000	62.103271	106141.948242
19.200000	62.774658	106141.948242
19.210000	59.753418	106141.948242
19.220000	59.417725	106141.948242
19.230000	61.431885	106141.948242
19.240000	63.446045	106141.948242
19.250000	60.089111	106141.948242
19.260000	58.410645	106141.948242
19.270000	60.760498	106141.948242
19.280000	63.110352	106141.948242
19.290000	63.110352	106141.948242
19.300000	62.774658	106141.948242
19.310000	60.089111	106141.948242
19.320000	61.096191	106141.948242
19.330000	60.760498	106141.948242
19.340000	61.096191	106141.948242
19.350000	59.417725	106141.948242
19.360000	64.117432	106141.948242
19.370000	60.760498	106141.948242
19.380000	61.431885	106141.948242
19.390000	61.431885	106141.948242
19.400000	65.460205	106141.948242
19.410000	61.096191	106141.948242
19.420000	61.767578	106141.948242
19.430000	59.753418	106141.948242
19.440000	63.446045	106141.948242
19.450000	63.781738	106141.948242
19.460000	60.424805	106141.948242
19.470000	61.431885	106141.948242
19.480000	62.103271	106141.948242
19.490000	61.767578	106141.948242
19.500000	59.417725	106141.948242
19.510000	61.431885	106141.948242
19.520000	62.103271	106141.948242
19.530000	60.760498	106141.948242
19.540000	62.103271	106141.948242
19.550000	58.746338	106141.948242
19.560000	60.089111	106141.948242
19.570000	63.781738	106141.948242
19.580000	64.788818	106141.948242
19.590000	61.767578	106141.948242
19.600000	61.096191	106141.948242
19.610000	62.438965	106141.948242
19.620000	62.438965	106141.948242
19.630000	62.774658	106141.948242
19.640000	64.788818	106141.948242
19.650000	61.431885	106141.948242
19.660000	60.424805	106141.948242
19.670000	59.753418	106141.948242
19.680000	61.767578	106141.948242
19.690000	62.438965	106141.948242
19.700000	61.431885	106141.948242
19.710000	60.424805	106141.948242
19.720000	63.110352	106141.948242
19.730000	65.124512	106141.948242
19.740000	68.817139	106141.948242
19.750000	61.767578	106141.948242
19.760000	60.424805	106141.948242
19.770000	61.431885	106141.948242
19.780000	61.096191	106141.948242
19.790000	60.089111	106141.948242
19.800000	64.117432	106141.948242
19.810000	61.767578	106141.948242
19.820000	61.096191	106141.948242
19.830000	65.124512	106141.948242
19.840000	57.067871	106141.948242
19.850000	60.424805	106141.948242
19.860000	64.117432	106141.948242
19.870000	62.774658	106141.948242
19.880000	59.082031	106141.948242
19.890000	62.774658	106141.948242
19.900000	63.110352	106141.948242
19.910000	61.096191	106141.948242
19.920000	62.774658	106141.948242
19.930000	53.375244	106141.948242
19.940000	61.096191	106141.948242
19.950000	62.774658	106141.948242
19.960000	65.124512	106141.948242
19.970000	61.767578	106141.948242
19.980000	55.053711	106141.948242
19.990000	62.103271	106141.948242
20.000000	59.417725	106141.948242
20.010000	61.767578	106141.948242
20.020000	62.438965	106141.948242
20.030000	62.438965	106141.948242
20.040000	60.760498	106141.948242
20.050000	63.110352	106141.948242
20.060000	58.746338	106141.948242
20.070000	63.110352	106141.948242
20.080000	67.810059	106141.948242
20.090000	60.760498	106141.948242
20.100000	60.089111	106141.948242
20.110000	61.767578	106141.948242
20.120000	63.446045	106141.948242
20.130000	62.103271	106141.948242
20.140000	63.110352	106141.948242
20.150000	62.774658	106141.948242
20.160000	55.725098	106141.948242
20.170000	62.103271	106141.948242
20.180000	62.103271	106141.948242
20.190000	61.096191	106141.948242
20.200000	62.103271	106141.948242
20.210000	63.110352	106141.948242
20.220000	53.375244	106141.948242
20.230000	61.096191	106141.948242
20.240000	63.110352	106141.948242
20.250000	61.767578	106141.948242
20.260000	61.431885	106141.948242
20.270000	59.417725	106141.948242
20.280000	63.781738	106141.948242
20.290000	67.810059	106141.948242
20.300000	63.446045	106141.948242
20.310000	60.760498	106141.948242
20.320000	61.767578	106141.948242
20.330000	62.774658	106141.948242
20.340000	61.431885	106141.948242
20.350000	64.117432	106141.948242
20.360000	59.417725	106141.948242
20.370000	61.767578	106141.948242
20.380000	62.774658	106141.948242
20.390000	62.774658	106141.948242
20.400000	62.774658	106141.948242
20.410000	62.774658	106141.948242
20.420000	61.767578	106141.948242
20.430000	63.110352	106141.948242
20.440000	59.753418	106141.948242
20.450000	63.446045	106141.948242
20.460000	61.431885	106141.948242
20.470000	62.103271	106141.948242
20.480000	62.774658	106141.948242
20.490000	58.410645	106141.948242
20.500000	61.096191	106141.948242
20.510000	62.438965	106141.948242
20.520000	68.817139	106141.948242
20.530000	63.110352	106141.948242
20.540000	64.453125	106141.948242
20.550000	62.438965	106141.948242
20.560000	66.131592	106141.948242
20.570000	66.802979	106141.948242
20.580000	64.117432	106141.948242
20.590000	61.096191	106141.948242
20.600000	61.096191	106141.948242
20.610000	62.774658	106141.948242
20.620000	63.446045	106141.948242
20.630000	62.438965	106141.948242
20.640000	61.767578	106141.948242
20.650000	64.453125	106141.948242
20.660000	62.438965	106141.948242
20.670000	61.767578	106141.948242
20.680000	63.110352	106141.948242
20.690000	63.110352	106141.948242
20.700000	63.446045	106141.948242
20.710000	63.110352	106141.948242
20.720000	63.110352	106141.948242
20.730000	62.774658	106141.948242
20.740000	64.117432	106141.948242
20.750000	61.767578	106141.948242
20.760000	61.431885	106141.948242
20.770000	61.767578	106141.948242
20.780000	62.103271	106141.948242
20.790000	63.446045	106141.948242
20.800000	64.788818	106141.948242
20.810000	63.110352	106141.948242
20.820000	61.767578	106141.948242
20.830000	63.110352	106141.948242
20.840000	63.446045	106141.948242
20.850000	61.431885	106141.948242
20.860000	63.781738	106141.948242
20.870000	63.781738	106141.948242
20.880000	62.438965	106141.948242
20.890000	62.103271	106141.948242
20.900000	61.767578	106141.948242
20.910000	61.096191	106141.948242
20.920000	63.446045	106141.948242
20.930000	64.117432	106141.948242
20.940000	63.110352	106141.948242
20.950000	64.788818	106141.948242
20.960000	63.446045	106141.948242
20.970000	62.438965	106141.948242
20.980000	62.774658	106141.948242
20.990000	60.424805	106141.948242
